File: powder_xrd/KDP100_27112023_clear.txt
    15.0000      2630
    15.0400      2566
    15.0800      2574
    15.1200      2550
    15.1600      2626
    15.2000      2440
    15.2400      2584
    15.2800      2348
    15.3200      2542
    15.3600      2446
    15.4000      2396
    15.4400      2536
    15.4800      2480
    15.5200      2532
    15.5600      2432
    15.6000      2512
    15.6400      2488
    15.6800      2668
    15.7200      2556
    15.7600      2468
    15.8000      2546
    15.8400      2488
    15.8800      2476
    15.9200      2520
    15.9600      2300
    16.0000      2396
    16.0400      2466
    16.0800      2356
    16.1200      2332
    16.1600      2392
    16.2000      2362
    16.2400      2436
    16.2800      2406
    16.3200      2440
    16.3600      2536
    16.4000      2432
    16.4400      2486
    16.4800      2356
    16.5200      2280
    16.5600      2258
    16.6000      2142
    16.6400      2146
    16.6800      2254
    16.7200      2204
    16.7600      2224
    16.8000      2154
    16.8400      2232
    16.8800      2294
    16.9200      2240
    16.9600      2338
    17.0000      2336
    17.0400      2344
    17.0800      2484
    17.1200      2822
    17.1600      3108
    17.2000      3466
    17.2400      4480
    17.2800      5216
    17.3200      6124
    17.3600      6402
    17.4000      6380
    17.4400      6138
    17.4800      5136
    17.5200      3738
    17.5600      2652
    17.6000      2152
    17.6400      2000
    17.6800      1892
    17.7200      1874
    17.7600      1886
    17.8000      1928
    17.8400      1816
    17.8800      1800
    17.9200      1764
    17.9600      1760
    18.0000      1868
    18.0400      1834
    18.0800      1806
    18.1200      1804
    18.1600      1772
    18.2000      1738
    18.2400      1770
    18.2800      1834
    18.3200      1822
    18.3600      1632
    18.4000      1748
    18.4400      1784
    18.4800      1710
    18.5200      1728
    18.5600      1698
    18.6000      1822
    18.6400      1786
    18.6800      1772
    18.7200      1716
    18.7600      1688
    18.8000      1710
    18.8400      1786
    18.8800      1682
    18.9200      1700
    18.9600      1714
    19.0000      1710
    19.0400      1776
    19.0800      1754
    19.1200      1728
    19.1600      1690
    19.2000      1704
    19.2400      1658
    19.2800      1732
    19.3200      1658
    19.3600      1760
    19.4000      1654
    19.4400      1612
    19.4800      1630
    19.5200      1668
    19.5600      1656
    19.6000      1610
    19.6400      1592
    19.6800      1672
    19.7200      1646
    19.7600      1620
    19.8000      1626
    19.8400      1658
    19.8800      1720
    19.9200      1624
    19.9600      1790
    20.0000      1692
    20.0400      1758
    20.0800      1664
    20.1200      1726
    20.1600      1668
    20.2000      1614
    20.2400      1562
    20.2800      1550
    20.3200      1634
    20.3600      1612
    20.4000      1552
    20.4400      1648
    20.4800      1682
    20.5200      1710
    20.5600      1682
    20.6000      1616
    20.6400      1610
    20.6800      1606
    20.7200      1598
    20.7600      1554
    20.8000      1624
    20.8400      1584
    20.8800      1738
    20.9200      1692
    20.9600      1654
    21.0000      1602
    21.0400      1732
    21.0800      1854
    21.1200      1960
    21.1600      2202
    21.2000      2278
    21.2400      2254
    21.2800      2468
    21.3200      2504
    21.3600      2252
    21.4000      2132
    21.4400      1842
    21.4800      1746
    21.5200      1666
    21.5600      1564
    21.6000      1504
    21.6400      1382
    21.6800      1390
    21.7200      1428
    21.7600      1392
    21.8000      1392
    21.8400      1326
    21.8800      1364
    21.9200      1344
    21.9600      1414
    22.0000      1354
    22.0400      1364
    22.0800      1400
    22.1200      1422
    22.1600      1490
    22.2000      1344
    22.2400      1382
    22.2800      1404
    22.3200      1356
    22.3600      1438
    22.4000      1426
    22.4400      1352
    22.4800      1366
    22.5200      1354
    22.5600      1274
    22.6000      1236
    22.6400      1298
    22.6800      1286
    22.7200      1268
    22.7600      1360
    22.8000      1284
    22.8400      1384
    22.8800      1346
    22.9200      1374
    22.9600      1288
    23.0000      1398
    23.0400      1382
    23.0800      1404
    23.1200      1380
    23.1600      1418
    23.2000      1470
    23.2400      1452
    23.2800      1530
    23.3200      1548
    23.3600      1702
    23.4000      1924
    23.4400      2202
    23.4800      2500
    23.5200      3186
    23.5600      3786
    23.6000      4704
    23.6400      6018
    23.6800      8252
    23.7200     11364
    23.7600     15918
    23.8000     20366
    23.8400     21832
    23.8800     20418
    23.9200     17390
    23.9600     13048
    24.0000      8128
    24.0400      4258
    24.0800      2484
    24.1200      2094
    24.1600      1840
    24.2000      1754
    24.2400      1620
    24.2800      1512
    24.3200      1436
    24.3600      1388
    24.4000      1366
    24.4400      1348
    24.4800      1364
    24.5200      1340
    24.5600      1308
    24.6000      1414
    24.6400      1452
    24.6800      1410
    24.7200      1438
    24.7600      1328
    24.8000      1368
    24.8400      1312
    24.8800      1274
    24.9200      1268
    24.9600      1252
    25.0000      1212
    25.0400      1220
    25.0800      1254
    25.1200      1204
    25.1600      1228
    25.2000      1272
    25.2400      1226
    25.2800      1280
    25.3200      1192
    25.3600      1236
    25.4000      1150
    25.4400      1238
    25.4800      1220
    25.5200      1232
    25.5600      1162
    25.6000      1184
    25.6400      1134
    25.6800      1116
    25.7200      1096
    25.7600      1094
    25.8000      1128
    25.8400      1130
    25.8800      1178
    25.9200      1178
    25.9600      1210
    26.0000      1210
    26.0400      1314
    26.0800      1152
    26.1200      1210
    26.1600      1236
    26.2000      1158
    26.2400      1182
    26.2800      1204
    26.3200      1188
    26.3600      1248
    26.4000      1162
    26.4400      1136
    26.4800      1098
    26.5200      1122
    26.5600      1154
    26.6000      1114
    26.6400      1160
    26.6800      1116
    26.7200      1228
    26.7600      1294
    26.8000      1246
    26.8400      1416
    26.8800      1368
    26.9200      1294
    26.9600      1368
    27.0000      1302
    27.0400      1198
    27.0800      1158
    27.1200      1148
    27.1600      1156
    27.2000      1028
    27.2400      1084
    27.2800      1084
    27.3200      1014
    27.3600      1094
    27.4000       968
    27.4400      1052
    27.4800      1016
    27.5200      1030
    27.5600      1054
    27.6000      1076
    27.6400      1096
    27.6800      1116
    27.7200      1146
    27.7600      1128
    27.8000      1176
    27.8400      1192
    27.8800      1238
    27.9200      1170
    27.9600      1152
    28.0000      1188
    28.0400      1078
    28.0800      1050
    28.1200      1036
    28.1600      1024
    28.2000      1008
    28.2400      1060
    28.2800      1038
    28.3200      1026
    28.3600      1042
    28.4000      1008
    28.4400      1026
    28.4800      1042
    28.5200      1058
    28.5600      1028
    28.6000      1002
    28.6400      1082
    28.6800      1080
    28.7200      1072
    28.7600      1050
    28.8000      1052
    28.8400      1064
    28.8800      1026
    28.9200      1044
    28.9600      1022
    29.0000      1124
    29.0400      1072
    29.0800      1016
    29.1200      1070
    29.1600      1094
    29.2000      1140
    29.2400      1250
    29.2800      1356
    29.3200      1452
    29.3600      1560
    29.4000      1788
    29.4400      2044
    29.4800      2288
    29.5200      2692
    29.5600      3164
    29.6000      3750
    29.6400      4380
    29.6800      4612
    29.7200      4318
    29.7600      3738
    29.8000      2724
    29.8400      1974
    29.8800      1490
    29.9200      1250
    29.9600      1306
    30.0000      1238
    30.0400      1220
    30.0800      1288
    30.1200      1392
    30.1600      1408
    30.2000      1502
    30.2400      1472
    30.2800      1644
    30.3200      1744
    30.3600      1920
    30.4000      2402
    30.4400      2860
    30.4800      3690
    30.5200      5062
    30.5600      7508
    30.6000     10866
    30.6400     14480
    30.6800     17488
    30.7200     18328
    30.7600     17000
    30.8000     13242
    30.8400      8620
    30.8800      5090
    30.9200      2768
    30.9600      1836
    31.0000      1466
    31.0400      1330
    31.0800      1296
    31.1200      1160
    31.1600      1138
    31.2000      1068
    31.2400      1030
    31.2800       974
    31.3200       922
    31.3600       926
    31.4000       930
    31.4400       910
    31.4800       916
    31.5200       962
    31.5600       956
    31.6000       908
    31.6400       950
    31.6800      1010
    31.7200      1034
    31.7600      1016
    31.8000      1074
    31.8400       966
    31.8800      1066
    31.9200      1042
    31.9600      1026
    32.0000      1070
    32.0400      1004
    32.0800       980
    32.1200      1014
    32.1600       990
    32.2000       908
    32.2400       948
    32.2800       814
    32.3200       936
    32.3600       934
    32.4000       900
    32.4400       934
    32.4800       902
    32.5200       902
    32.5600       902
    32.6000       868
    32.6400       882
    32.6800       858
    32.7200       836
    32.7600       882
    32.8000       880
    32.8400       880
    32.8800       866
    32.9200       950
    32.9600       960
    33.0000       906
    33.0400       892
    33.0800       900
    33.1200       888
    33.1600       892
    33.2000       922
    33.2400       864
    33.2800       800
    33.3200       842
    33.3600       814
    33.4000       866
    33.4400       922
    33.4800       994
    33.5200       960
    33.5600      1022
    33.6000      1002
    33.6400      1104
    33.6800      1272
    33.7200      1472
    33.7600      1868
    33.8000      2462
    33.8400      3326
    33.8800      4216
    33.9200      5012
    33.9600      5896
    34.0000      6738
    34.0400      6994
    34.0800      6902
    34.1200      5784
    34.1600      3614
    34.2000      2598
    34.2400      1426
    34.2800      1092
    34.3200      1000
    34.3600       862
    34.4000       926
    34.4400       898
    34.4800       782
    34.5200       860
    34.5600       808
    34.6000       822
    34.6400       842
    34.6800       822
    34.7200       826
    34.7600       750
    34.8000       796
    34.8400       822
    34.8800       826
    34.9200       902
    34.9600       972
    35.0000      1118
    35.0400      1264
    35.0800      1502
    35.1200      2022
    35.1600      2378
    35.2000      2566
    35.2400      2574
    35.2800      2298
    35.3200      1804
    35.3600      1396
    35.4000      1092
    35.4400       966
    35.4800       870
    35.5200       814
    35.5600       758
    35.6000       770
    35.6400       840
    35.6800       800
    35.7200       820
    35.7600       850
    35.8000       736
    35.8400       850
    35.8800       796
    35.9200       744
    35.9600       744
    36.0000       736
    36.0400       700
    36.0800       714
    36.1200       690
    36.1600       666
    36.2000       706
    36.2400       666
    36.2800       698
    36.3200       670
    36.3600       698
    36.4000       708
    36.4400       678
    36.4800       724
    36.5200       724
    36.5600       724
    36.6000       752
    36.6400       736
    36.6800       800
    36.7200       886
    36.7600       908
    36.8000       912
    36.8400       926
    36.8800       922
    36.9200       852
    36.9600       780
    37.0000       790
    37.0400       750
    37.0800       688
    37.1200       698
    37.1600       706
    37.2000       666
    37.2400       742
    37.2800       728
    37.3200       766
    37.3600       720
    37.4000       696
    37.4400       662
    37.4800       682
    37.5200       702
    37.5600       686
    37.6000       688
    37.6400       686
    37.6800       700
    37.7200       684
    37.7600       688
    37.8000       740
    37.8400       802
    37.8800       780
    37.9200       830
    37.9600      1006
    38.0000      1126
    38.0400      1530
    38.0800      1756
    38.1200      1942
    38.1600      2102
    38.2000      2032
    38.2400      2044
    38.2800      2098
    38.3200      2544
    38.3600      2956
    38.4000      3172
    38.4400      3590
    38.4800      3570
    38.5200      3042
    38.5600      2716
    38.6000      1806
    38.6400      1418
    38.6800      1080
    38.7200       766
    38.7600       752
    38.8000       722
    38.8400       630
    38.8800       674
    38.9200       674
    38.9600       638
    39.0000       628
    39.0400       712
    39.0800       670
    39.1200       710
    39.1600       674
    39.2000       624
    39.2400       698
    39.2800       682
    39.3200       670
    39.3600       666
    39.4000       600
    39.4400       652
    39.4800       608
    39.5200       586
    39.5600       612
    39.6000       602
    39.6400       620
    39.6800       664
    39.7200       610
    39.7600       682
    39.8000       628
    39.8400       618
    39.8800       658
    39.9200       684
    39.9600       670
    40.0000       704
    40.0400       676
    40.0800       624
    40.1200       690
    40.1600       686
    40.2000       706
    40.2400       680
    40.2800       686
    40.3200       720
    40.3600       754
    40.4000       840
    40.4400      1006
    40.4800      1176
    40.5200      1248
    40.5600      1458
    40.6000      1588
    40.6400      1612
    40.6800      1528
    40.7200      1310
    40.7600      1170
    40.8000       948
    40.8400       802
    40.8800       702
    40.9200       694
    40.9600       672
    41.0000       712
    41.0400       708
    41.0800       790
    41.1200       856
    41.1600       926
    41.2000       972
    41.2400       964
    41.2800       916
    41.3200       768
    41.3600       790
    41.4000       702
    41.4400       706
    41.4800       632
    41.5200       606
    41.5600       612
    41.6000       650
    41.6400       708
    41.6800       722
    41.7200       708
    41.7600       746
    41.8000       752
    41.8400       730
    41.8800       718
    41.9200       732
    41.9600       656
    42.0000       686
    42.0400       660
    42.0800       640
    42.1200       656
    42.1600       600
    42.2000       666
    42.2400       576
    42.2800       580
    42.3200       596
    42.3600       584
    42.4000       584
    42.4400       564
    42.4800       632
    42.5200       582
    42.5600       586
    42.6000       580
    42.6400       596
    42.6800       586
    42.7200       614
    42.7600       588
    42.8000       562
    42.8400       578
    42.8800       580
    42.9200       596
    42.9600       594
    43.0000       592
    43.0400       544
    43.0800       638
    43.1200       654
    43.1600       646
    43.2000       592
    43.2400       592
    43.2800       672
    43.3200       578
    43.3600       610
    43.4000       694
    43.4400       606
    43.4800       672
    43.5200       634
    43.5600       598
    43.6000       560
    43.6400       602
    43.6800       606
    43.7200       540
    43.7600       606
    43.8000       562
    43.8400       548
    43.8800       590
    43.9200       558
    43.9600       584
    44.0000       580
    44.0400       564
    44.0800       608
    44.1200       614
    44.1600       600
    44.2000       592
    44.2400       652
    44.2800       580
    44.3200       582
    44.3600       562
    44.4000       564
    44.4400       600
    44.4800       556
    44.5200       568
    44.5600       556
    44.6000       572
    44.6400       542
    44.6800       598
    44.7200       628
    44.7600       586
    44.8000       578
    44.8400       598
    44.8800       596
    44.9200       604
    44.9600       602
    45.0000       642
    45.0400       650
    45.0800       596
    45.1200       628
    45.1600       632
    45.2000       624
    45.2400       636
    45.2800       630
    45.3200       674
    45.3600       730
    45.4000       748
    45.4400       844
    45.4800      1008
    45.5200      1208
    45.5600      1444
    45.6000      1882
    45.6400      2496
    45.6800      3130
    45.7200      3552
    45.7600      3508
    45.8000      3252
    45.8400      2616
    45.8800      2184
    45.9200      1706
    45.9600      1292
    46.0000      1186
    46.0400      1034
    46.0800      1002
    46.1200      1110
    46.1600      1342
    46.2000      1590
    46.2400      2084
    46.2800      3172
    46.3200      5208
    46.3600      8950
    46.4000     11286
    46.4400     13378
    46.4800     15294
    46.5200     13978
    46.5600     12006
    46.6000      8984
    46.6400      5988
    46.6800      4032
    46.7200      2376
    46.7600      1340
    46.8000      1000
    46.8400       854
    46.8800       830
    46.9200       762
    46.9600       680
    47.0000       712
    47.0400       696
    47.0800       680
    47.1200       740
    47.1600       744
    47.2000       740
    47.2400       704
    47.2800       670
    47.3200       692
    47.3600       716
    47.4000       702
    47.4400       734
    47.4800       832
    47.5200       966
    47.5600      1106
    47.6000      1224
    47.6400      1310
    47.6800      1408
    47.7200      1292
    47.7600      1282
    47.8000      1006
    47.8400       946
    47.8800       814
    47.9200       704
    47.9600       640
    48.0000       598
    48.0400       592
    48.0800       572
    48.1200       572
    48.1600       566
    48.2000       524
    48.2400       560
    48.2800       604
    48.3200       588
    48.3600       580
    48.4000       566
    48.4400       548
    48.4800       568
    48.5200       560
    48.5600       572
    48.6000       566
    48.6400       656
    48.6800       670
    48.7200       820
    48.7600       914
    48.8000       912
    48.8400       902
    48.8800       938
    48.9200       882
    48.9600       820
    49.0000       746
    49.0400       656
    49.0800       650
    49.1200       582
    49.1600       570
    49.2000       578
    49.2400       574
    49.2800       572
    49.3200       518
    49.3600       544
    49.4000       530
    49.4400       568
    49.4800       502
    49.5200       506
    49.5600       518
    49.6000       486
    49.6400       540
    49.6800       496
    49.7200       456
    49.7600       506
    49.8000       484
    49.8400       498
    49.8800       524
    49.9200       474
    49.9600       488
    50.0000       502
    50.0400       512
    50.0800       544
    50.1200       568
    50.1600       538
    50.2000       536
    50.2400       490
    50.2800       482
    50.3200       504
    50.3600       548
    50.4000       496
    50.4400       496
    50.4800       466
    50.5200       526
    50.5600       564
    50.6000       506
    50.6400       556
    50.6800       498
    50.7200       526
    50.7600       496
    50.8000       488
    50.8400       486
    50.8800       490
    50.9200       500
    50.9600       484
    51.0000       450
    51.0400       468
    51.0800       466
    51.1200       440
    51.1600       464
    51.2000       470
    51.2400       452
    51.2800       438
    51.3200       482
    51.3600       442
    51.4000       466
    51.4400       428
    51.4800       468
    51.5200       478
    51.5600       456
    51.6000       500
    51.6400       530
    51.6800       484
    51.7200       508
    51.7600       490
    51.8000       472
    51.8400       544
    51.8800       502
    51.9200       532
    51.9600       518
    52.0000       560
    52.0400       552
    52.0800       608
    52.1200       610
    52.1600       678
    52.2000       732
    52.2400       782
    52.2800       786
    52.3200       732
    52.3600       656
    52.4000       646
    52.4400       592
    52.4800       522
    52.5200       546
    52.5600       496
    52.6000       514
    52.6400       474
    52.6800       464
    52.7200       438
    52.7600       456
    52.8000       464
    52.8400       432
    52.8800       436
    52.9200       462
    52.9600       470
    53.0000       496
    53.0400       472
    53.0800       452
    53.1200       468
    53.1600       506
    53.2000       456
    53.2400       458
    53.2800       502
    53.3200       508
    53.3600       482
    53.4000       480
    53.4400       480
    53.4800       474
    53.5200       488
    53.5600       428
    53.6000       492
    53.6400       462
    53.6800       490
    53.7200       474
    53.7600       524
    53.8000       558
    53.8400       564
    53.8800       580
    53.9200       626
    53.9600       662
    54.0000       626
    54.0400       600
    54.0800       608
    54.1200       584
    54.1600       590
    54.2000       526
    54.2400       488
    54.2800       510
    54.3200       490
    54.3600       466
    54.4000       482
    54.4400       466
    54.4800       480
    54.5200       498
    54.5600       454
    54.6000       486
    54.6400       548
    54.6800       518
    54.7200       556
    54.7600       558
    54.8000       638
    54.8400       774
    54.8800       958
    54.9200      1216
    54.9600      1588
    55.0000      1744
    55.0400      1750
    55.0800      1916
    55.1200      1650
    55.1600      1558
    55.2000      1340
    55.2400      1026
    55.2800       834
    55.3200       718
    55.3600       684
    55.4000       538
    55.4400       506
    55.4800       440
    55.5200       462
    55.5600       488
    55.6000       438
    55.6400       458
    55.6800       452
    55.7200       454
    55.7600       452
    55.8000       462
    55.8400       488
    55.8800       484
    55.9200       502
    55.9600       456
    56.0000       472
    56.0400       494
    56.0800       414
    56.1200       466
    56.1600       458
    56.2000       436
    56.2400       474
    56.2800       450
    56.3200       452
    56.3600       462
    56.4000       476
    56.4400       414
    56.4800       432
    56.5200       478
    56.5600       436
    56.6000       476
    56.6400       468
    56.6800       506
    56.7200       452
    56.7600       434
    56.8000       472
    56.8400       418
    56.8800       442
    56.9200       464
    56.9600       428
    57.0000       452
    57.0400       470
    57.0800       456
    57.1200       430
    57.1600       440
    57.2000       496
    57.2400       442
    57.2800       440
    57.3200       478
    57.3600       464
    57.4000       410
    57.4400       446
    57.4800       470
    57.5200       426
    57.5600       452
    57.6000       450
    57.6400       476
    57.6800       400
    57.7200       418
    57.7600       456
    57.8000       466
    57.8400       480
    57.8800       488
    57.9200       480
    57.9600       476
    58.0000       556
    58.0400       516
    58.0800       526
    58.1200       612
    58.1600       612
    58.2000       772
    58.2400      1002
    58.2800      1322
    58.3200      1686
    58.3600      2008
    58.4000      1982
    58.4400      1898
    58.4800      1658
    58.5200      1560
    58.5600      1370
    58.6000      1256
    58.6400      1256
    58.6800      1374
    58.7200      1588
    58.7600      2056
    58.8000      2784
    58.8400      3250
    58.8800      3146
    58.9200      2970
    58.9600      2250
    59.0000      1972
    59.0400      1690
    59.0800      1380
    59.1200      1012
    59.1600       618
    59.2000       550
    59.2400       498
    59.2800       500
    59.3200       466
    59.3600       448
    59.4000       460
    59.4400       444
    59.4800       496
    59.5200       462
    59.5600       534
    59.6000       502
    59.6400       560
    59.6800       580
    59.7200       756
    59.7600       788
    59.8000       772
    59.8400       830
    59.8800       796
    59.9200       682
    59.9600       670
    60.0000       610