File: powder_xrd/KDP25_TU75_27112023.txt
    15.0000      3622
    15.0400      3690
    15.0800      3624
    15.1200      3628
    15.1600      3532
    15.2000      3586
    15.2400      3510
    15.2800      3478
    15.3200      3520
    15.3600      3576
    15.4000      3546
    15.4400      3430
    15.4800      3400
    15.5200      3514
    15.5600      3540
    15.6000      3566
    15.6400      3600
    15.6800      3450
    15.7200      3506
    15.7600      3468
    15.8000      3482
    15.8400      3646
    15.8800      3560
    15.9200      3776
    15.9600      3820
    16.0000      4062
    16.0400      4156
    16.0800      4376
    16.1200      4822
    16.1600      5188
    16.2000      5778
    16.2400      6206
    16.2800      7148
    16.3200      8352
    16.3600      9386
    16.4000      9790
    16.4400      9548
    16.4800      8866
    16.5200      7282
    16.5600      5442
    16.6000      4310
    16.6400      4048
    16.6800      4138
    16.7200      4460
    16.7600      4760
    16.8000      5308
    16.8400      5308
    16.8800      5246
    16.9200      4984
    16.9600      4630
    17.0000      4246
    17.0400      4178
    17.0800      4244
    17.1200      4542
    17.1600      4910
    17.2000      5364
    17.2400      5968
    17.2800      6926
    17.3200      7466
    17.3600      7590
    17.4000      6938
    17.4400      5974
    17.4800      4878
    17.5200      3796
    17.5600      3198
    17.6000      3234
    17.6400      3062
    17.6800      3158
    17.7200      3090
    17.7600      3132
    17.8000      2996
    17.8400      3010
    17.8800      3022
    17.9200      3096
    17.9600      2978
    18.0000      3060
    18.0400      3042
    18.0800      3020
    18.1200      3082
    18.1600      2956
    18.2000      2986
    18.2400      3058
    18.2800      2972
    18.3200      3104
    18.3600      2972
    18.4000      3060
    18.4400      2910
    18.4800      2944
    18.5200      2964
    18.5600      2966
    18.6000      3038
    18.6400      2898
    18.6800      2872
    18.7200      2860
    18.7600      3032
    18.8000      2906
    18.8400      2954
    18.8800      3018
    18.9200      2934
    18.9600      2976
    19.0000      2950
    19.0400      3008
    19.0800      3018
    19.1200      2990
    19.1600      2998
    19.2000      2908
    19.2400      2934
    19.2800      3010
    19.3200      2982
    19.3600      2920
    19.4000      2892
    19.4400      2928
    19.4800      2820
    19.5200      2922
    19.5600      3066
    19.6000      2952
    19.6400      3014
    19.6800      3152
    19.7200      3190
    19.7600      3380
    19.8000      3598
    19.8400      3804
    19.8800      4108
    19.9200      4670
    19.9600      5228
    20.0000      6256
    20.0400      6672
    20.0800      6776
    20.1200      6466
    20.1600      5578
    20.2000      4528
    20.2400      4112
    20.2800      4026
    20.3200      4224
    20.3600      4764
    20.4000      5312
    20.4400      5920
    20.4800      6428
    20.5200      6622
    20.5600      6540
    20.6000      6198
    20.6400      5754
    20.6800      5412
    20.7200      5724
    20.7600      6670
    20.8000      7670
    20.8400      8534
    20.8800      9164
    20.9200      9098
    20.9600      8914
    21.0000      9016
    21.0400     10502
    21.0800     13152
    21.1200     17142
    21.1600     21598
    21.2000     25122
    21.2400     27446
    21.2800     26642
    21.3200     24264
    21.3600     20050
    21.4000     16836
    21.4400     14284
    21.4800     11644
    21.5200      8494
    21.5600      5650
    21.6000      4054
    21.6400      3408
    21.6800      3042
    21.7200      3174
    21.7600      3086
    21.8000      2988
    21.8400      2902
    21.8800      2998
    21.9200      3048
    21.9600      2986
    22.0000      2966
    22.0400      2840
    22.0800      3048
    22.1200      3044
    22.1600      3080
    22.2000      3262
    22.2400      3440
    22.2800      3626
    22.3200      3860
    22.3600      3972
    22.4000      4082
    22.4400      3964
    22.4800      3730
    22.5200      3338
    22.5600      3140
    22.6000      3006
    22.6400      2870
    22.6800      2852
    22.7200      2950
    22.7600      2836
    22.8000      2830
    22.8400      2852
    22.8800      2870
    22.9200      2868
    22.9600      2838
    23.0000      3006
    23.0400      2916
    23.0800      2962
    23.1200      3174
    23.1600      3364
    23.2000      3578
    23.2400      4010
    23.2800      4690
    23.3200      5636
    23.3600      7440
    23.4000      9486
    23.4400     12276
    23.4800     15308
    23.5200     18230
    23.5600     18880
    23.6000     18148
    23.6400     16018
    23.6800     13478
    23.7200     11100
    23.7600     10256
    23.8000     10276
    23.8400     10846
    23.8800     12004
    23.9200     12664
    23.9600     10710
    24.0000      7238
    24.0400      4644
    24.0800      3264
    24.1200      3136
    24.1600      3044
    24.2000      3066
    24.2400      2916
    24.2800      3044
    24.3200      2958
    24.3600      3004
    24.4000      3230
    24.4400      3308
    24.4800      3828
    24.5200      4552
    24.5600      5008
    24.6000      5642
    24.6400      6304
    24.6800      6402
    24.7200      6200
    24.7600      5400
    24.8000      4746
    24.8400      4026
    24.8800      3310
    24.9200      2936
    24.9600      2730
    25.0000      2762
    25.0400      2700
    25.0800      2648
    25.1200      2648
    25.1600      2606
    25.2000      2646
    25.2400      2652
    25.2800      2630
    25.3200      2668
    25.3600      2626
    25.4000      2748
    25.4400      2806
    25.4800      2948
    25.5200      2992
    25.5600      3050
    25.6000      3168
    25.6400      3184
    25.6800      3092
    25.7200      2998
    25.7600      2928
    25.8000      3170
    25.8400      3454
    25.8800      3912
    25.9200      4626
    25.9600      4944
    26.0000      5124
    26.0400      5080
    26.0800      5012
    26.1200      4790
    26.1600      5154
    26.2000      5614
    26.2400      6254
    26.2800      6470
    26.3200      6514
    26.3600      5788
    26.4000      4852
    26.4400      4000
    26.4800      3202
    26.5200      2900
    26.5600      2662
    26.6000      2534
    26.6400      2570
    26.6800      2558
    26.7200      2652
    26.7600      2644
    26.8000      2570
    26.8400      2600
    26.8800      2582
    26.9200      2448
    26.9600      2620
    27.0000      2586
    27.0400      2606
    27.0800      2444
    27.1200      2466
    27.1600      2436
    27.2000      2526
    27.2400      2356
    27.2800      2354
    27.3200      2468
    27.3600      2436
    27.4000      2386
    27.4400      2506
    27.4800      2510
    27.5200      2380
    27.5600      2494
    27.6000      2442
    27.6400      2410
    27.6800      2426
    27.7200      2486
    27.7600      2476
    27.8000      2446
    27.8400      2392
    27.8800      2386
    27.9200      2478
    27.9600      2542
    28.0000      2428
    28.0400      2428
    28.0800      2516
    28.1200      2632
    28.1600      2780
    28.2000      2954
    28.2400      3306
    28.2800      3802
    28.3200      4354
    28.3600      4746
    28.4000      5070
    28.4400      5494
    28.4800      5714
    28.5200      5598
    28.5600      5366
    28.6000      4582
    28.6400      3864
    28.6800      3056
    28.7200      2680
    28.7600      2542
    28.8000      2364
    28.8400      2534
    28.8800      2518
    28.9200      2616
    28.9600      2636
    29.0000      2744
    29.0400      3048
    29.0800      3504
    29.1200      4326
    29.1600      5424
    29.2000      6510
    29.2400      7422
    29.2800      8198
    29.3200      8722
    29.3600      9236
    29.4000      9410
    29.4400      9494
    29.4800      9454
    29.5200      8870
    29.5600      7940
    29.6000      6740
    29.6400      5766
    29.6800      4762
    29.7200      3918
    29.7600      3400
    29.8000      2968
    29.8400      2796
    29.8800      2622
    29.9200      2604
    29.9600      2606
    30.0000      2554
    30.0400      2554
    30.0800      2700
    30.1200      2828
    30.1600      2934
    30.2000      3040
    30.2400      3074
    30.2800      3194
    30.3200      3226
    30.3600      3282
    30.4000      3378
    30.4400      3544
    30.4800      4118
    30.5200      4844
    30.5600      5688
    30.6000      6908
    30.6400      8254
    30.6800      8986
    30.7200      9392
    30.7600      8948
    30.8000      7358
    30.8400      5918
    30.8800      4650
    30.9200      3740
    30.9600      3186
    31.0000      3188
    31.0400      3424
    31.0800      3518
    31.1200      3844
    31.1600      3998
    31.2000      4044
    31.2400      3694
    31.2800      3196
    31.3200      2932
    31.3600      2608
    31.4000      2570
    31.4400      2412
    31.4800      2602
    31.5200      2690
    31.5600      2974
    31.6000      3136
    31.6400      3824
    31.6800      4582
    31.7200      5364
    31.7600      6302
    31.8000      6830
    31.8400      7126
    31.8800      6980
    31.9200      6850
    31.9600      6486
    32.0000      6100
    32.0400      5930
    32.0800      5192
    32.1200      4494
    32.1600      3870
    32.2000      3106
    32.2400      2710
    32.2800      2510
    32.3200      2464
    32.3600      2594
    32.4000      2554
    32.4400      2616
    32.4800      2600
    32.5200      2710
    32.5600      2620
    32.6000      2504
    32.6400      2490
    32.6800      2390
    32.7200      2422
    32.7600      2426
    32.8000      2710
    32.8400      2998
    32.8800      3356
    32.9200      3604
    32.9600      3730
    33.0000      3674
    33.0400      3500
    33.0800      3224
    33.1200      2868
    33.1600      2536
    33.2000      2490
    33.2400      2324
    33.2800      2304
    33.3200      2328
    33.3600      2244
    33.4000      2234
    33.4400      2250
    33.4800      2262
    33.5200      2344
    33.5600      2336
    33.6000      2446
    33.6400      2396
    33.6800      2512
    33.7200      2498
    33.7600      2706
    33.8000      2836
    33.8400      3110
    33.8800      3574
    33.9200      4084
    33.9600      4512
    34.0000      4484
    34.0400      4582
    34.0800      4048
    34.1200      3526
    34.1600      3194
    34.2000      2698
    34.2400      2486
    34.2800      2408
    34.3200      2306
    34.3600      2290
    34.4000      2212
    34.4400      2184
    34.4800      2248
    34.5200      2124
    34.5600      2122
    34.6000      2208
    34.6400      2116
    34.6800      2178
    34.7200      2168
    34.7600      2078
    34.8000      2334
    34.8400      2174
    34.8800      2360
    34.9200      2670
    34.9600      2894
    35.0000      3288
    35.0400      3536
    35.0800      3992
    35.1200      4328
    35.1600      4462
    35.2000      4388
    35.2400      4138
    35.2800      3606
    35.3200      3110
    35.3600      2708
    35.4000      2402
    35.4400      2376
    35.4800      2346
    35.5200      2470
    35.5600      2570
    35.6000      2808
    35.6400      3276
    35.6800      3466
    35.7200      3604
    35.7600      3736
    35.8000      3544
    35.8400      3114
    35.8800      2808
    35.9200      2532
    35.9600      2310
    36.0000      2200
    36.0400      2128
    36.0800      2212
    36.1200      2122
    36.1600      2118
    36.2000      2152
    36.2400      2094
    36.2800      2136
    36.3200      2062
    36.3600      2236
    36.4000      2148
    36.4400      2356
    36.4800      2388
    36.5200      2628
    36.5600      2932
    36.6000      3490
    36.6400      4218
    36.6800      5474
    36.7200      6794
    36.7600      7910
    36.8000      8722
    36.8400      8952
    36.8800      8070
    36.9200      6478
    36.9600      5016
    37.0000      3872
    37.0400      3096
    37.0800      2824
    37.1200      2462
    37.1600      2496
    37.2000      2592
    37.2400      2718
    37.2800      2926
    37.3200      3036
    37.3600      2970
    37.4000      2972
    37.4400      2712
    37.4800      2538
    37.5200      2294
    37.5600      2232
    37.6000      2224
    37.6400      2210
    37.6800      2208
    37.7200      2326
    37.7600      2268
    37.8000      2368
    37.8400      2394
    37.8800      2204
    37.9200      2298
    37.9600      2270
    38.0000      2350
    38.0400      2440
    38.0800      2620
    38.1200      2660
    38.1600      2566
    38.2000      2712
    38.2400      2596
    38.2800      2926
    38.3200      3102
    38.3600      3152
    38.4000      3282
    38.4400      3086
    38.4800      2866
    38.5200      2610
    38.5600      2512
    38.6000      2234
    38.6400      2074
    38.6800      2034
    38.7200      2104
    38.7600      2124
    38.8000      2130
    38.8400      2160
    38.8800      2190
    38.9200      2308
    38.9600      2328
    39.0000      2324
    39.0400      2318
    39.0800      2292
    39.1200      2340
    39.1600      2340
    39.2000      2232
    39.2400      2288
    39.2800      2242
    39.3200      2286
    39.3600      2070
    39.4000      1974
    39.4400      2090
    39.4800      1978
    39.5200      2072
    39.5600      2002
    39.6000      2122
    39.6400      2076
    39.6800      2090
    39.7200      2098
    39.7600      2012
    39.8000      2170
    39.8400      1960
    39.8800      2040
    39.9200      2038
    39.9600      2088
    40.0000      2078
    40.0400      2148
    40.0800      2006
    40.1200      2076
    40.1600      2054
    40.2000      2002
    40.2400      2204
    40.2800      2142
    40.3200      2170
    40.3600      2242
    40.4000      2400
    40.4400      2818
    40.4800      3394
    40.5200      4068
    40.5600      4936
    40.6000      5442
    40.6400      5720
    40.6800      5534
    40.7200      5048
    40.7600      4404
    40.8000      3694
    40.8400      3154
    40.8800      2808
    40.9200      2546
    40.9600      2364
    41.0000      2274
    41.0400      2214
    41.0800      2190
    41.1200      2234
    41.1600      2148
    41.2000      2142
    41.2400      2258
    41.2800      2330
    41.3200      2464
    41.3600      2676
    41.4000      2864
    41.4400      3602
    41.4800      3914
    41.5200      4536
    41.5600      4804
    41.6000      4734
    41.6400      4390
    41.6800      4188
    41.7200      4026
    41.7600      3638
    41.8000      3600
    41.8400      3396
    41.8800      3284
    41.9200      3336
    41.9600      3304
    42.0000      3302
    42.0400      3276
    42.0800      3540
    42.1200      3536
    42.1600      3250
    42.2000      3174
    42.2400      3028
    42.2800      2790
    42.3200      2656
    42.3600      2792
    42.4000      2774
    42.4400      2762
    42.4800      2814
    42.5200      2886
    42.5600      2708
    42.6000      2648
    42.6400      2550
    42.6800      2320
    42.7200      2322
    42.7600      2124
    42.8000      2032
    42.8400      1980
    42.8800      2002
    42.9200      1980
    42.9600      2028
    43.0000      2078
    43.0400      2024
    43.0800      2058
    43.1200      2208
    43.1600      2290
    43.2000      2404
    43.2400      2728
    43.2800      3060
    43.3200      3404
    43.3600      3588
    43.4000      3700
    43.4400      3696
    43.4800      3458
    43.5200      3204
    43.5600      2994
    43.6000      2624
    43.6400      2390
    43.6800      2226
    43.7200      2122
    43.7600      2046
    43.8000      2066
    43.8400      2164
    43.8800      2130
    43.9200      2124
    43.9600      2240
    44.0000      2298
    44.0400      2276
    44.0800      2346
    44.1200      2300
    44.1600      2284
    44.2000      2336
    44.2400      2160
    44.2800      2158
    44.3200      2104
    44.3600      2078
    44.4000      2068
    44.4400      2066
    44.4800      2066
    44.5200      2106
    44.5600      2146
    44.6000      2120
    44.6400      2230
    44.6800      2218
    44.7200      2256
    44.7600      2324
    44.8000      2254
    44.8400      2270
    44.8800      2184
    44.9200      2230
    44.9600      2250
    45.0000      2224
    45.0400      2162
    45.0800      2138
    45.1200      2126
    45.1600      2046
    45.2000      2150
    45.2400      2182
    45.2800      2370
    45.3200      2486
    45.3600      2554
    45.4000      2770
    45.4400      2882
    45.4800      3016
    45.5200      3112
    45.5600      3396
    45.6000      3572
    45.6400      3848
    45.6800      4204
    45.7200      4280
    45.7600      4176
    45.8000      3912
    45.8400      3456
    45.8800      3058
    45.9200      2950
    45.9600      2816
    46.0000      2772
    46.0400      2880
    46.0800      2714
    46.1200      2936
    46.1600      2854
    46.2000      3036
    46.2400      3330
    46.2800      3626
    46.3200      4106
    46.3600      4768
    46.4000      5034
    46.4400      5576
    46.4800      5346
    46.5200      4852
    46.5600      4492
    46.6000      3876
    46.6400      3262
    46.6800      2824
    46.7200      2498
    46.7600      2292
    46.8000      2324
    46.8400      2188
    46.8800      2110
    46.9200      2238
    46.9600      2278
    47.0000      2428
    47.0400      2608
    47.0800      2748
    47.1200      2944
    47.1600      3130
    47.2000      3028
    47.2400      2988
    47.2800      3018
    47.3200      2884
    47.3600      2880
    47.4000      2986
    47.4400      3260
    47.4800      3552
    47.5200      3952
    47.5600      4448
    47.6000      4662
    47.6400      4616
    47.6800      4378
    47.7200      3980
    47.7600      3652
    47.8000      3230
    47.8400      3012
    47.8800      2654
    47.9200      2570
    47.9600      2440
    48.0000      2452
    48.0400      2388
    48.0800      2384
    48.1200      2444
    48.1600      2528
    48.2000      2514
    48.2400      2612
    48.2800      2668
    48.3200      2602
    48.3600      2418
    48.4000      2440
    48.4400      2284
    48.4800      2280
    48.5200      2152
    48.5600      2226
    48.6000      2364
    48.6400      2330
    48.6800      2544
    48.7200      2890
    48.7600      2986
    48.8000      2988
    48.8400      3124
    48.8800      3226
    48.9200      3030
    48.9600      3032
    49.0000      2880
    49.0400      2754
    49.0800      2646
    49.1200      2564
    49.1600      2606
    49.2000      2588
    49.2400      2552
    49.2800      2548
    49.3200      2572
    49.3600      2722
    49.4000      2828
    49.4400      2850
    49.4800      2870
    49.5200      2724
    49.5600      2638
    49.6000      2388
    49.6400      2306
    49.6800      2334
    49.7200      2292
    49.7600      2444
    49.8000      2646
    49.8400      2782
    49.8800      2902
    49.9200      2910
    49.9600      2914
    50.0000      2932
    50.0400      2934
    50.0800      3090
    50.1200      3182
    50.1600      3336
    50.2000      3278
    50.2400      3120
    50.2800      3044
    50.3200      2968
    50.3600      2978
    50.4000      3136
    50.4400      3358
    50.4800      3492
    50.5200      3624
    50.5600      3826
    50.6000      3690
    50.6400      3860
    50.6800      4034
    50.7200      4118
    50.7600      4082
    50.8000      4116
    50.8400      3800
    50.8800      3258
    50.9200      2952
    50.9600      2742
    51.0000      2440
    51.0400      2160
    51.0800      2034
    51.1200      1954
    51.1600      2024
    51.2000      1888
    51.2400      1952
    51.2800      1926
    51.3200      1952
    51.3600      2028
    51.4000      2096
    51.4400      1990
    51.4800      2100
    51.5200      2116
    51.5600      2290
    51.6000      2364
    51.6400      2422
    51.6800      2542
    51.7200      2562
    51.7600      2574
    51.8000      2426
    51.8400      2518
    51.8800      2404
    51.9200      2278
    51.9600      2310
    52.0000      2348
    52.0400      2402
    52.0800      2680
    52.1200      2868
    52.1600      3126
    52.2000      3342
    52.2400      3338
    52.2800      3432
    52.3200      3040
    52.3600      2848
    52.4000      2690
    52.4400      2484
    52.4800      2282
    52.5200      2252
    52.5600      2078
    52.6000      2176
    52.6400      2220
    52.6800      2198
    52.7200      2318
    52.7600      2376
    52.8000      2382
    52.8400      2500
    52.8800      2576
    52.9200      2644
    52.9600      2826
    53.0000      2906
    53.0400      3004
    53.0800      2898
    53.1200      2798
    53.1600      2776
    53.2000      2706
    53.2400      2644
    53.2800      2668
    53.3200      2596
    53.3600      2594
    53.4000      2594
    53.4400      2586
    53.4800      2504
    53.5200      2378
    53.5600      2386
    53.6000      2246
    53.6400      2244
    53.6800      2248
    53.7200      2146
    53.7600      2084
    53.8000      2150
    53.8400      2150
    53.8800      2190
    53.9200      2274
    53.9600      2212
    54.0000      2340
    54.0400      2460
    54.0800      2588
    54.1200      2824
    54.1600      2968
    54.2000      3040
    54.2400      3088
    54.2800      3250
    54.3200      3140
    54.3600      3108
    54.4000      2908
    54.4400      2694
    54.4800      2646
    54.5200      2592
    54.5600      2450
    54.6000      2542
    54.6400      2588
    54.6800      2830
    54.7200      2906
    54.7600      2704
    54.8000      2580
    54.8400      2648
    54.8800      2466
    54.9200      2404
    54.9600      2396
    55.0000      2442
    55.0400      2452
    55.0800      2412
    55.1200      2468
    55.1600      2256
    55.2000      2230
    55.2400      2224
    55.2800      2136
    55.3200      2126
    55.3600      2204
    55.4000      2290
    55.4400      2390
    55.4800      2344
    55.5200      2286
    55.5600      2290
    55.6000      2180
    55.6400      2160
    55.6800      2152
    55.7200      2006
    55.7600      2180
    55.8000      2070
    55.8400      2122
    55.8800      2024
    55.9200      2156
    55.9600      2028
    56.0000      2002
    56.0400      1996
    56.0800      1916
    56.1200      1940
    56.1600      1906
    56.2000      1874
    56.2400      2004
    56.2800      1920
    56.3200      2088
    56.3600      2042
    56.4000      2116
    56.4400      2104
    56.4800      2252
    56.5200      2254
    56.5600      2320
    56.6000      2528
    56.6400      2498
    56.6800      2550
    56.7200      2648
    56.7600      2576
    56.8000      2446
    56.8400      2282
    56.8800      2274
    56.9200      2124
    56.9600      2190
    57.0000      1954
    57.0400      2004
    57.0800      1962
    57.1200      1896
    57.1600      1838
    57.2000      1868
    57.2400      1878
    57.2800      1862
    57.3200      1926
    57.3600      1956
    57.4000      1884
    57.4400      1986
    57.4800      1976
    57.5200      2032
    57.5600      2012
    57.6000      2032
    57.6400      1974
    57.6800      2020
    57.7200      2020
    57.7600      2030
    57.8000      2094
    57.8400      2090
    57.8800      2096
    57.9200      2100
    57.9600      2084
    58.0000      2056
    58.0400      1998
    58.0800      1950
    58.1200      2084
    58.1600      2088
    58.2000      1950
    58.2400      2082
    58.2800      2014
    58.3200      2146
    58.3600      2102
    58.4000      2190
    58.4400      2206
    58.4800      2194
    58.5200      2160
    58.5600      2120
    58.6000      2222
    58.6400      2254
    58.6800      2206
    58.7200      2284
    58.7600      2426
    58.8000      2350
    58.8400      2460
    58.8800      2356
    58.9200      2422
    58.9600      2404
    59.0000      2480
    59.0400      2452
    59.0800      2526
    59.1200      2426
    59.1600      2526
    59.2000      2666
    59.2400      2816
    59.2800      3142
    59.3200      3228
    59.3600      3242
    59.4000      3010
    59.4400      2834
    59.4800      2816
    59.5200      2700
    59.5600      2620
    59.6000      2422
    59.6400      2366
    59.6800      2420
    59.7200      2496
    59.7600      2646
    59.8000      2596
    59.8400      2576
    59.8800      2558
    59.9200      2496
    59.9600      2434
    60.0000      2186