File: powder_xrd/KDP50_TU50-re1_11122023_clear.txt
    15.0000      3438
    15.1000      3154
    15.2000      3090
    15.3000      3100
    15.4000      3196
    15.5000      3052
    15.6000      3056
    15.7000      3120
    15.8000      3124
    15.9000      3100
    16.0000      3038
    16.1000      3236
    16.2000      3462
    16.3000      4108
    16.4000      5778
    16.5000      7668
    16.6000      5328
    16.7000      3092
    16.8000      3408
    16.9000      3714
    17.0000      3312
    17.1000      3374
    17.2000      3986
    17.3000      6890
    17.4000      8828
    17.5000      5794
    17.6000      3016
    17.7000      2532
    17.8000      2492
    17.9000      2496
    18.0000      2374
    18.1000      2478
    18.2000      2464
    18.3000      2462
    18.4000      2460
    18.5000      2414
    18.6000      2396
    18.7000      2308
    18.8000      2388
    18.9000      2444
    19.0000      2326
    19.1000      2352
    19.2000      2296
    19.3000      2376
    19.4000      2264
    19.5000      2376
    19.6000      2280
    19.7000      2324
    19.8000      2458
    19.9000      2620
    20.0000      3140
    20.1000      4052
    20.2000      3856
    20.3000      2934
    20.4000      2798
    20.5000      3384
    20.6000      3754
    20.7000      3328
    20.8000      3548
    20.9000      4664
    21.0000      4446
    21.1000      4268
    21.2000      6672
    21.3000      9606
    21.4000      9528
    21.5000      6592
    21.6000      3718
    21.7000      2342
    21.8000      2074
    21.9000      2118
    22.0000      2072
    22.1000      2082
    22.2000      2066
    22.3000      2176
    22.4000      2302
    22.5000      2300
    22.6000      2158
    22.7000      2050
    22.8000      2052
    22.9000      1980
    23.0000      2018
    23.1000      2076
    23.2000      2220
    23.3000      2460
    23.4000      3362
    23.5000      5700
    23.6000      8612
    23.7000     10036
    23.8000     13974
    23.9000     18722
    24.0000     12560
    24.1000      4192
    24.2000      2444
    24.3000      2358
    24.4000      2148
    24.5000      2214
    24.6000      2592
    24.7000      2982
    24.8000      2886
    24.9000      2342
    25.0000      1932
    25.1000      1938
    25.2000      1946
    25.3000      1906
    25.4000      1862
    25.5000      1912
    25.6000      1988
    25.7000      2144
    25.8000      1990
    25.9000      2124
    26.0000      2366
    26.1000      2678
    26.2000      2730
    26.3000      3196
    26.4000      3250
    26.5000      2520
    26.6000      1970
    26.7000      1828
    26.8000      1906
    26.9000      1970
    27.0000      1980
    27.1000      1874
    27.2000      1850
    27.3000      1748
    27.4000      1676
    27.5000      1712
    27.6000      1630
    27.7000      1680
    27.8000      1778
    27.9000      1824
    28.0000      1894
    28.1000      1740
    28.2000      1724
    28.3000      1938
    28.4000      2222
    28.5000      2580
    28.6000      2490
    28.7000      2082
    28.8000      1736
    28.9000      1622
    29.0000      1740
    29.1000      1974
    29.2000      2534
    29.3000      4390
    29.4000      5612
    29.5000      6466
    29.6000      5958
    29.7000      4374
    29.8000      3324
    29.9000      2258
    30.0000      1944
    30.1000      2092
    30.2000      2088
    30.3000      2320
    30.4000      2572
    30.5000      3554
    30.6000     12208
    30.7000     16260
    30.8000     15556
    30.9000      8748
    31.0000      3380
    31.1000      2310
    31.2000      2226
    31.3000      2238
    31.4000      1766
    31.5000      1666
    31.6000      1682
    31.7000      2056
    31.8000      2780
    31.9000      3088
    32.0000      3210
    32.1000      3134
    32.2000      2492
    32.3000      1854
    32.4000      1600
    32.5000      1576
    32.6000      1646
    32.7000      1524
    32.8000      1566
    32.9000      1776
    33.0000      2104
    33.1000      1960
    33.2000      1838
    33.3000      1550
    33.4000      1484
    33.5000      1564
    33.6000      1530
    33.7000      1754
    33.8000      2390
    33.9000      3784
    34.0000      5828
    34.1000      6494
    34.2000      3660
    34.3000      1866
    34.4000      1556
    34.5000      1522
    34.6000      1518
    34.7000      1472
    34.8000      1448
    34.9000      1510
    35.0000      1800
    35.1000      2296
    35.2000      3018
    35.3000      3288
    35.4000      2304
    35.5000      1604
    35.6000      1540
    35.7000      1756
    35.8000      1976
    35.9000      1988
    36.0000      1538
    36.1000      1340
    36.2000      1430
    36.3000      1374
    36.4000      1394
    36.5000      1460
    36.6000      1612
    36.7000      2240
    36.8000      3500
    36.9000      5276
    37.0000      4282
    37.1000      2256
    37.2000      1556
    37.3000      1482
    37.4000      1580
    37.5000      1518
    37.6000      1454
    37.7000      1372
    37.8000      1544
    37.9000      1532
    38.0000      1638
    38.1000      1820
    38.2000      2172
    38.3000      2326
    38.4000      3088
    38.5000      3548
    38.6000      2736
    38.7000      1726
    38.8000      1422
    38.9000      1378
    39.0000      1356
    39.1000      1428
    39.2000      1382
    39.3000      1326
    39.4000      1264
    39.5000      1280
    39.6000      1264
    39.7000      1262
    39.8000      1294
    39.9000      1348
    40.0000      1328
    40.1000      1354
    40.2000      1354
    40.3000      1328
    40.4000      1478
    40.5000      1998
    40.6000      2444
    40.7000      3248
    40.8000      3154
    40.9000      2084
    41.0000      1518
    41.1000      1378
    41.2000      1472
    41.3000      1336
    41.4000      1460
    41.5000      1712
    41.6000      1698
    41.7000      1872
    41.8000      2036
    41.9000      2090
    42.0000      1908
    42.1000      1944
    42.2000      1958
    42.3000      1802
    42.4000      1580
    42.5000      1608
    42.6000      1660
    42.7000      1488
    42.8000      1346
    42.9000      1306
    43.0000      1242
    43.1000      1282
    43.2000      1382
    43.3000      1546
    43.4000      2062
    43.5000      2072
    43.6000      1728
    43.7000      1424
    43.8000      1282
    43.9000      1224
    44.0000      1304
    44.1000      1318
    44.2000      1336
    44.3000      1408
    44.4000      1272
    44.5000      1252
    44.6000      1274
    44.7000      1362
    44.8000      1424
    44.9000      1348
    45.0000      1344
    45.1000      1262
    45.2000      1322
    45.3000      1344
    45.4000      1496
    45.5000      1606
    45.6000      1996
    45.7000      2552
    45.8000      3160
    45.9000      2906
    46.0000      3124
    46.1000      2636
    46.2000      2586
    46.3000      3308
    46.4000      5106
    46.5000      7308
    46.6000      6186
    46.7000      3498
    46.8000      1922
    46.9000      1428
    47.0000      1378
    47.1000      1436
    47.2000      1482
    47.3000      1680
    47.4000      1656
    47.5000      1794
    47.6000      2242
    47.7000      2764
    47.8000      2628
    47.9000      2018
    48.0000      1566
    48.1000      1452
    48.2000      1316
    48.3000      1452
    48.4000      1406
    48.5000      1352
    48.6000      1280
    48.7000      1394
    48.8000      1716
    48.9000      1810
    49.0000      1780
    49.1000      1778
    49.2000      1580
    49.3000      1438
    49.4000      1516
    49.5000      1540
    49.6000      1524
    49.7000      1296
    49.8000      1260
    49.9000      1472
    50.0000      1474
    50.1000      1494
    50.2000      1464
    50.3000      1516
    50.4000      1416
    50.5000      1448
    50.6000      1538
    50.7000      1676
    50.8000      1650
    50.9000      1506
    51.0000      1332
    51.1000      1224
    51.2000      1202
    51.3000      1154
    51.4000      1118
    51.5000      1178
    51.6000      1204
    51.7000      1270
    51.8000      1424
    51.9000      1468
    52.0000      1412
    52.1000      1436
    52.2000      1538
    52.3000      1724
    52.4000      1614
    52.5000      1352
    52.6000      1274
    52.7000      1280
    52.8000      1520
    52.9000      1592
    53.0000      1546
    53.1000      1498
    53.2000      1526
    53.3000      1472
    53.4000      1542
    53.5000      1560
    53.6000      1410
    53.7000      1308
    53.8000      1304
    53.9000      1296
    54.0000      1340
    54.1000      1476
    54.2000      1570
    54.3000      1726
    54.4000      1526
    54.5000      1372
    54.6000      1414
    54.7000      1424
    54.8000      1372
    54.9000      1662
    55.0000      2036
    55.1000      2334
    55.2000      2942
    55.3000      2586
    55.4000      1888
    55.5000      1384
    55.6000      1322
    55.7000      1188
    55.8000      1274
    55.9000      1252
    56.0000      1210
    56.1000      1190
    56.2000      1122
    56.3000      1098
    56.4000      1126
    56.5000      1206
    56.6000      1262
    56.7000      1336
    56.8000      1294
    56.9000      1264
    57.0000      1218
    57.1000      1260
    57.2000      1128
    57.3000      1170
    57.4000      1146
    57.5000      1226
    57.6000      1210
    57.7000      1124
    57.8000      1140
    57.9000      1146
    58.0000      1244
    58.1000      1170
    58.2000      1242
    58.3000      1436
    58.4000      1580
    58.5000      1682
    58.6000      1614
    58.7000      1664
    58.8000      2224
    58.9000      2392
    59.0000      1906
    59.1000      1730
    59.2000      1574
    59.3000      1536
    59.4000      1452
    59.5000      1364
    59.6000      1310
    59.7000      1488
    59.8000      1754
    59.9000      1834
    60.0000      1672