File: powder_xrd/KDP50_TU50-re2_11122023.txt
    15.0000      3156
    15.1000      3192
    15.2000      3120
    15.3000      3024
    15.4000      3052
    15.5000      2972
    15.6000      3032
    15.7000      3014
    15.8000      3108
    15.9000      3128
    16.0000      3104
    16.1000      3258
    16.2000      3644
    16.3000      4710
    16.4000      6248
    16.5000      5366
    16.6000      3592
    16.7000      3210
    16.8000      3326
    16.9000      3274
    17.0000      3042
    17.1000      3376
    17.2000      4454
    17.3000      5550
    17.4000      5808
    17.5000      4180
    17.6000      2672
    17.7000      2412
    17.8000      2444
    17.9000      2382
    18.0000      2482
    18.1000      2358
    18.2000      2334
    18.3000      2300
    18.4000      2300
    18.5000      2390
    18.6000      2354
    18.7000      2402
    18.8000      2322
    18.9000      2390
    19.0000      2330
    19.1000      2342
    19.2000      2264
    19.3000      2246
    19.4000      2184
    19.5000      2242
    19.6000      2278
    19.7000      2288
    19.8000      2436
    19.9000      2716
    20.0000      3216
    20.1000      4504
    20.2000      3720
    20.3000      2702
    20.4000      2844
    20.5000      3766
    20.6000      3718
    20.7000      3254
    20.8000      3694
    20.9000      4210
    21.0000      4220
    21.1000      5386
    21.2000      7644
    21.3000      9094
    21.4000      8134
    21.5000      5326
    21.6000      2798
    21.7000      2182
    21.8000      2068
    21.9000      2114
    22.0000      1980
    22.1000      2034
    22.2000      2140
    22.3000      2270
    22.4000      2402
    22.5000      2202
    22.6000      2118
    22.7000      2050
    22.8000      1818
    22.9000      2018
    23.0000      1968
    23.1000      2094
    23.2000      2246
    23.3000      2772
    23.4000      4090
    23.5000      6792
    23.6000      9382
    23.7000     10346
    23.8000     12808
    23.9000     17000
    24.0000     11936
    24.1000      3012
    24.2000      2358
    24.3000      2122
    24.4000      2086
    24.5000      2310
    24.6000      2722
    24.7000      3328
    24.8000      2856
    24.9000      2156
    25.0000      1930
    25.1000      1832
    25.2000      1834
    25.3000      1848
    25.4000      1838
    25.5000      1894
    25.6000      2004
    25.7000      1976
    25.8000      1990
    25.9000      2108
    26.0000      2474
    26.1000      2746
    26.2000      2946
    26.3000      3088
    26.4000      2638
    26.5000      2006
    26.6000      1798
    26.7000      1868
    26.8000      2010
    26.9000      2000
    27.0000      1908
    27.1000      1782
    27.2000      1736
    27.3000      1694
    27.4000      1642
    27.5000      1682
    27.6000      1660
    27.7000      1738
    27.8000      1768
    27.9000      1844
    28.0000      1816
    28.1000      1722
    28.2000      1886
    28.3000      2106
    28.4000      2366
    28.5000      3072
    28.6000      3374
    28.7000      2216
    28.8000      1786
    28.9000      1674
    29.0000      1810
    29.1000      2062
    29.2000      2696
    29.3000      3728
    29.4000      4536
    29.5000      5684
    29.6000      5868
    29.7000      4308
    29.8000      2842
    29.9000      2052
    30.0000      1860
    30.1000      1972
    30.2000      2192
    30.3000      2382
    30.4000      2964
    30.5000      5148
    30.6000      9002
    30.7000     13578
    30.8000     11232
    30.9000      4990
    31.0000      2168
    31.1000      1966
    31.2000      2010
    31.3000      1808
    31.4000      1522
    31.5000      1570
    31.6000      1852
    31.7000      2524
    31.8000      3114
    31.9000      3510
    32.0000      3334
    32.1000      2906
    32.2000      2048
    32.3000      1712
    32.4000      1568
    32.5000      1550
    32.6000      1572
    32.7000      1570
    32.8000      1684
    32.9000      1798
    33.0000      2012
    33.1000      1936
    33.2000      1646
    33.3000      1510
    33.4000      1546
    33.5000      1556
    33.6000      1698
    33.7000      1786
    33.8000      2396
    33.9000      4002
    34.0000      5304
    34.1000      3774
    34.2000      2084
    34.3000      1578
    34.4000      1542
    34.5000      1454
    34.6000      1424
    34.7000      1476
    34.8000      1412
    34.9000      1486
    35.0000      1954
    35.1000      2578
    35.2000      3180
    35.3000      2696
    35.4000      1822
    35.5000      1500
    35.6000      1628
    35.7000      1764
    35.8000      1730
    35.9000      1478
    36.0000      1450
    36.1000      1288
    36.2000      1358
    36.3000      1382
    36.4000      1388
    36.5000      1524
    36.6000      1924
    36.7000      2694
    36.8000      3088
    36.9000      2680
    37.0000      1946
    37.1000      1602
    37.2000      1490
    37.3000      1612
    37.4000      1702
    37.5000      1466
    37.6000      1398
    37.7000      1360
    37.8000      1418
    37.9000      1572
    38.0000      2008
    38.1000      2070
    38.2000      2208
    38.3000      2462
    38.4000      4578
    38.5000      5548
    38.6000      3872
    38.7000      1882
    38.8000      1368
    38.9000      1344
    39.0000      1394
    39.1000      1394
    39.2000      1358
    39.3000      1284
    39.4000      1238
    39.5000      1206
    39.6000      1300
    39.7000      1252
    39.8000      1268
    39.9000      1218
    40.0000      1294
    40.1000      1348
    40.2000      1328
    40.3000      1358
    40.4000      1498
    40.5000      1916
    40.6000      2580
    40.7000      2798
    40.8000      2430
    40.9000      1900
    41.0000      1572
    41.1000      1438
    41.2000      1346
    41.3000      1324
    41.4000      1442
    41.5000      1662
    41.6000      1858
    41.7000      2016
    41.8000      2086
    41.9000      1968
    42.0000      2110
    42.1000      2178
    42.2000      1888
    42.3000      1666
    42.4000      1560
    42.5000      1506
    42.6000      1506
    42.7000      1374
    42.8000      1232
    42.9000      1212
    43.0000      1206
    43.1000      1258
    43.2000      1372
    43.3000      1574
    43.4000      1870
    43.5000      1782
    43.6000      1530
    43.7000      1376
    43.8000      1278
    43.9000      1228
    44.0000      1394
    44.1000      1384
    44.2000      1332
    44.3000      1262
    44.4000      1250
    44.5000      1240
    44.6000      1326
    44.7000      1358
    44.8000      1324
    44.9000      1332
    45.0000      1284
    45.1000      1364
    45.2000      1430
    45.3000      1484
    45.4000      2204
    45.5000      3412
    45.6000      3494
    45.7000      3270
    45.8000      2880
    45.9000      2368
    46.0000      2028
    46.1000      1984
    46.2000      2470
    46.3000      4146
    46.4000      7056
    46.5000     11208
    46.6000     14576
    46.7000      7652
    46.8000      2966
    46.9000      1588
    47.0000      1468
    47.1000      1614
    47.2000      1860
    47.3000      1904
    47.4000      1806
    47.5000      2140
    47.6000      2532
    47.7000      2478
    47.8000      1986
    47.9000      1680
    48.0000      1490
    48.1000      1466
    48.2000      1468
    48.3000      1522
    48.4000      1488
    48.5000      1350
    48.6000      1374
    48.7000      1538
    48.8000      1594
    48.9000      2152
    49.0000      1962
    49.1000      1820
    49.2000      1470
    49.3000      1378
    49.4000      1428
    49.5000      1462
    49.6000      1266
    49.7000      1318
    49.8000      1332
    49.9000      1422
    50.0000      1374
    50.1000      1410
    50.2000      1512
    50.3000      1452
    50.4000      1476
    50.5000      1736
    50.6000      1844
    50.7000      1824
    50.8000      1554
    50.9000      1430
    51.0000      1228
    51.1000      1164
    51.2000      1144
    51.3000      1130
    51.4000      1162
    51.5000      1192
    51.6000      1266
    51.7000      1274
    51.8000      1256
    51.9000      1284
    52.0000      1314
    52.1000      1350
    52.2000      1670
    52.3000      1822
    52.4000      1580
    52.5000      1324
    52.6000      1208
    52.7000      1312
    52.8000      1334
    52.9000      1364
    53.0000      1416
    53.1000      1510
    53.2000      1444
    53.3000      1460
    53.4000      1368
    53.5000      1386
    53.6000      1340
    53.7000      1282
    53.8000      1238
    53.9000      1280
    54.0000      1384
    54.1000      1414
    54.2000      1476
    54.3000      1436
    54.4000      1414
    54.5000      1342
    54.6000      1274
    54.7000      1318
    54.8000      1536
    54.9000      1724
    55.0000      2128
    55.1000      2196
    55.2000      1962
    55.3000      1508
    55.4000      1328
    55.5000      1288
    55.6000      1304
    55.7000      1260
    55.8000      1196
    55.9000      1246
    56.0000      1152
    56.1000      1150
    56.2000      1100
    56.3000      1158
    56.4000      1168
    56.5000      1166
    56.6000      1290
    56.7000      1366
    56.8000      1390
    56.9000      1336
    57.0000      1168
    57.1000      1130
    57.2000      1090
    57.3000      1080
    57.4000      1176
    57.5000      1166
    57.6000      1182
    57.7000      1072
    57.8000      1130
    57.9000      1198
    58.0000      1190
    58.1000      1244
    58.2000      1384
    58.3000      1696
    58.4000      2012
    58.5000      2062
    58.6000      1710
    58.7000      1886
    58.8000      2384
    58.9000      2526
    59.0000      1888
    59.1000      1588
    59.2000      1354
    59.3000      1372
    59.4000      1278
    59.5000      1298
    59.6000      1448
    59.7000      1574
    59.8000      1656
    59.9000      1598
    60.0000      1310