File: powder_xrd/KDP75_TU25_27112023_clear.txt
    15.0000      3158
    15.0400      3022
    15.0800      2844
    15.1200      2808
    15.1600      2842
    15.2000      2858
    15.2400      2808
    15.2800      2736
    15.3200      2730
    15.3600      2810
    15.4000      2790
    15.4400      2732
    15.4800      2670
    15.5200      2646
    15.5600      2708
    15.6000      2702
    15.6400      2858
    15.6800      2876
    15.7200      2790
    15.7600      2862
    15.8000      2788
    15.8400      2784
    15.8800      2806
    15.9200      2844
    15.9600      2780
    16.0000      2706
    16.0400      2756
    16.0800      2736
    16.1200      2916
    16.1600      2996
    16.2000      3116
    16.2400      3168
    16.2800      3570
    16.3200      3896
    16.3600      4628
    16.4000      5296
    16.4400      5662
    16.4800      5576
    16.5200      5244
    16.5600      4436
    16.6000      3486
    16.6400      2982
    16.6800      2868
    16.7200      2794
    16.7600      2870
    16.8000      3032
    16.8400      3114
    16.8800      3196
    16.9200      3228
    16.9600      3024
    17.0000      2988
    17.0400      2908
    17.0800      2954
    17.1200      3090
    17.1600      3440
    17.2000      3748
    17.2400      4270
    17.2800      5016
    17.3200      5720
    17.3600      6670
    17.4000      7052
    17.4400      6836
    17.4800      6108
    17.5200      5412
    17.5600      4136
    17.6000      3308
    17.6400      2602
    17.6800      2408
    17.7200      2402
    17.7600      2314
    17.8000      2380
    17.8400      2354
    17.8800      2184
    17.9200      2248
    17.9600      2240
    18.0000      2188
    18.0400      2226
    18.0800      2200
    18.1200      2254
    18.1600      2208
    18.2000      2176
    18.2400      2160
    18.2800      2118
    18.3200      2146
    18.3600      2086
    18.4000      2248
    18.4400      2208
    18.4800      2152
    18.5200      2134
    18.5600      2134
    18.6000      2152
    18.6400      2154
    18.6800      2140
    18.7200      2154
    18.7600      2184
    18.8000      2144
    18.8400      2138
    18.8800      2064
    18.9200      2146
    18.9600      2098
    19.0000      2168
    19.0400      2156
    19.0800      2202
    19.1200      2160
    19.1600      2176
    19.2000      2160
    19.2400      2114
    19.2800      2150
    19.3200      2096
    19.3600      2144
    19.4000      2112
    19.4400      2154
    19.4800      2110
    19.5200      2052
    19.5600      2016
    19.6000      2102
    19.6400      2090
    19.6800      2164
    19.7200      2096
    19.7600      2100
    19.8000      2098
    19.8400      2258
    19.8800      2312
    19.9200      2492
    19.9600      2636
    20.0000      2906
    20.0400      3258
    20.0800      4006
    20.1200      4624
    20.1600      4814
    20.2000      4614
    20.2400      4130
    20.2800      3260
    20.3200      2684
    20.3600      2512
    20.4000      2576
    20.4400      2686
    20.4800      2870
    20.5200      3314
    20.5600      3728
    20.6000      3712
    20.6400      3712
    20.6800      3294
    20.7200      3046
    20.7600      2998
    20.8000      3346
    20.8400      3676
    20.8800      4072
    20.9200      4242
    20.9600      4202
    21.0000      3848
    21.0400      3814
    21.0800      3966
    21.1200      4460
    21.1600      5130
    21.2000      6538
    21.2400      8136
    21.2800      9436
    21.3200     10286
    21.3600     11342
    21.4000     10920
    21.4400      9490
    21.4800      7490
    21.5200      5844
    21.5600      4564
    21.6000      3450
    21.6400      2654
    21.6800      2268
    21.7200      1956
    21.7600      1974
    21.8000      1978
    21.8400      1888
    21.8800      1916
    21.9200      1906
    21.9600      1932
    22.0000      1904
    22.0400      1886
    22.0800      1896
    22.1200      1926
    22.1600      1988
    22.2000      1880
    22.2400      2004
    22.2800      2052
    22.3200      2108
    22.3600      2180
    22.4000      2218
    22.4400      2244
    22.4800      2250
    22.5200      2088
    22.5600      2062
    22.6000      1934
    22.6400      1896
    22.6800      1824
    22.7200      1884
    22.7600      1830
    22.8000      1794
    22.8400      1834
    22.8800      1816
    22.9200      1838
    22.9600      1900
    23.0000      1858
    23.0400      1892
    23.0800      1926
    23.1200      1902
    23.1600      1998
    23.2000      2080
    23.2400      2070
    23.2800      2146
    23.3200      2376
    23.3600      2690
    23.4000      3094
    23.4400      3854
    23.4800      4684
    23.5200      5768
    23.5600      7076
    23.6000      7860
    23.6400      8738
    23.6800      9800
    23.7200     11530
    23.7600     13988
    23.8000     17252
    23.8400     21370
    23.8800     23474
    23.9200     21732
    23.9600     19334
    24.0000     14730
    24.0400      9602
    24.0800      5382
    24.1200      3326
    24.1600      2646
    24.2000      2396
    24.2400      2324
    24.2800      2148
    24.3200      2188
    24.3600      2036
    24.4000      1940
    24.4400      1940
    24.4800      2024
    24.5200      2152
    24.5600      2150
    24.6000      2334
    24.6400      2468
    24.6800      2688
    24.7200      2774
    24.7600      2760
    24.8000      2770
    24.8400      2606
    24.8800      2450
    24.9200      2140
    24.9600      1948
    25.0000      1858
    25.0400      1752
    25.0800      1746
    25.1200      1764
    25.1600      1706
    25.2000      1726
    25.2400      1684
    25.2800      1650
    25.3200      1720
    25.3600      1664
    25.4000      1688
    25.4400      1720
    25.4800      1778
    25.5200      1684
    25.5600      1816
    25.6000      1842
    25.6400      1862
    25.6800      1878
    25.7200      1810
    25.7600      1872
    25.8000      1756
    25.8400      1742
    25.8800      1760
    25.9200      1814
    25.9600      2042
    26.0000      2086
    26.0400      2274
    26.0800      2354
    26.1200      2416
    26.1600      2396
    26.2000      2448
    26.2400      2482
    26.2800      2610
    26.3200      2750
    26.3600      2768
    26.4000      2822
    26.4400      2500
    26.4800      2346
    26.5200      2016
    26.5600      1850
    26.6000      1722
    26.6400      1730
    26.6800      1624
    26.7200      1714
    26.7600      1700
    26.8000      1662
    26.8400      1776
    26.8800      1792
    26.9200      1904
    26.9600      1840
    27.0000      1768
    27.0400      1752
    27.0800      1752
    27.1200      1728
    27.1600      1660
    27.2000      1620
    27.2400      1620
    27.2800      1518
    27.3200      1538
    27.3600      1554
    27.4000      1570
    27.4400      1480
    27.4800      1560
    27.5200      1534
    27.5600      1560
    27.6000      1488
    27.6400      1572
    27.6800      1556
    27.7200      1568
    27.7600      1622
    27.8000      1632
    27.8400      1668
    27.8800      1602
    27.9200      1688
    27.9600      1634
    28.0000      1582
    28.0400      1616
    28.0800      1660
    28.1200      1564
    28.1600      1510
    28.2000      1652
    28.2400      1648
    28.2800      1764
    28.3200      1930
    28.3600      2032
    28.4000      2144
    28.4400      2270
    28.4800      2180
    28.5200      2248
    28.5600      2234
    28.6000      2112
    28.6400      2052
    28.6800      1954
    28.7200      1744
    28.7600      1718
    28.8000      1650
    28.8400      1688
    28.8800      1590
    28.9200      1614
    28.9600      1536
    29.0000      1678
    29.0400      1616
    29.0800      1698
    29.1200      1868
    29.1600      1974
    29.2000      2150
    29.2400      2538
    29.2800      2798
    29.3200      3130
    29.3600      3538
    29.4000      3970
    29.4400      4450
    29.4800      4718
    29.5200      5138
    29.5600      5338
    29.6000      5312
    29.6400      5512
    29.6800      5452
    29.7200      5276
    29.7600      4798
    29.8000      4454
    29.8400      3660
    29.8800      3026
    29.9200      2274
    29.9600      1936
    30.0000      1864
    30.0400      1732
    30.0800      1814
    30.1200      1822
    30.1600      1866
    30.2000      1882
    30.2400      2040
    30.2800      1844
    30.3200      2090
    30.3600      2038
    30.4000      2234
    30.4400      2388
    30.4800      2828
    30.5200      3712
    30.5600      4886
    30.6000      6164
    30.6400      7860
    30.6800     10448
    30.7200     13194
    30.7600     15264
    30.8000     16436
    30.8400     15500
    30.8800     12206
    30.9200      8648
    30.9600      5154
    31.0000      3298
    31.0400      2346
    31.0800      2094
    31.1200      2052
    31.1600      2172
    31.2000      2268
    31.2400      2254
    31.2800      2292
    31.3200      2066
    31.3600      1944
    31.4000      1690
    31.4400      1560
    31.4800      1542
    31.5200      1490
    31.5600      1542
    31.6000      1578
    31.6400      1690
    31.6800      1782
    31.7200      2062
    31.7600      2354
    31.8000      2784
    31.8400      3094
    31.8800      3170
    31.9200      3176
    31.9600      2982
    32.0000      2848
    32.0400      2712
    32.0800      2588
    32.1200      2370
    32.1600      2260
    32.2000      1982
    32.2400      1756
    32.2800      1752
    32.3200      1588
    32.3600      1610
    32.4000      1562
    32.4400      1622
    32.4800      1628
    32.5200      1584
    32.5600      1562
    32.6000      1622
    32.6400      1456
    32.6800      1478
    32.7200      1458
    32.7600      1422
    32.8000      1446
    32.8400      1504
    32.8800      1498
    32.9200      1726
    32.9600      1726
    33.0000      1734
    33.0400      1822
    33.0800      1876
    33.1200      1786
    33.1600      1722
    33.2000      1662
    33.2400      1502
    33.2800      1410
    33.3200      1414
    33.3600      1398
    33.4000      1404
    33.4400      1398
    33.4800      1424
    33.5200      1402
    33.5600      1404
    33.6000      1530
    33.6400      1438
    33.6800      1596
    33.7200      1608
    33.7600      1830
    33.8000      2046
    33.8400      2244
    33.8800      2684
    33.9200      3124
    33.9600      3808
    34.0000      4580
    34.0400      4744
    34.0800      4744
    34.1200      4284
    34.1600      3550
    34.2000      2664
    34.2400      2058
    34.2800      1676
    34.3200      1550
    34.3600      1486
    34.4000      1366
    34.4400      1316
    34.4800      1324
    34.5200      1320
    34.5600      1330
    34.6000      1292
    34.6400      1294
    34.6800      1292
    34.7200      1254
    34.7600      1350
    34.8000      1272
    34.8400      1276
    34.8800      1310
    34.9200      1406
    34.9600      1482
    35.0000      1488
    35.0400      1768
    35.0800      2144
    35.1200      2548
    35.1600      3156
    35.2000      3682
    35.2400      4118
    35.2800      4120
    35.3200      4148
    35.3600      3762
    35.4000      2970
    35.4400      2196
    35.4800      1702
    35.5200      1450
    35.5600      1332
    35.6000      1394
    35.6400      1438
    35.6800      1510
    35.7200      1584
    35.7600      1686
    35.8000      1732
    35.8400      1638
    35.8800      1598
    35.9200      1442
    35.9600      1340
    36.0000      1288
    36.0400      1216
    36.0800      1274
    36.1200      1210
    36.1600      1144
    36.2000      1172
    36.2400      1170
    36.2800      1252
    36.3200      1154
    36.3600      1118
    36.4000      1186
    36.4400      1218
    36.4800      1308
    36.5200      1216
    36.5600      1262
    36.6000      1418
    36.6400      1644
    36.6800      1886
    36.7200      2278
    36.7600      2626
    36.8000      2802
    36.8400      2972
    36.8800      2972
    36.9200      2732
    36.9600      2400
    37.0000      2094
    37.0400      1734
    37.0800      1566
    37.1200      1462
    37.1600      1410
    37.2000      1270
    37.2400      1280
    37.2800      1334
    37.3200      1376
    37.3600      1432
    37.4000      1456
    37.4400      1446
    37.4800      1390
    37.5200      1368
    37.5600      1298
    37.6000      1280
    37.6400      1240
    37.6800      1230
    37.7200      1258
    37.7600      1278
    37.8000      1340
    37.8400      1294
    37.8800      1292
    37.9200      1342
    37.9600      1344
    38.0000      1384
    38.0400      1514
    38.0800      1642
    38.1200      1702
    38.1600      1854
    38.2000      2092
    38.2400      2170
    38.2800      2170
    38.3200      2318
    38.3600      2512
    38.4000      2770
    38.4400      3224
    38.4800      3610
    38.5200      3422
    38.5600      3352
    38.6000      2956
    38.6400      2150
    38.6800      1816
    38.7200      1558
    38.7600      1332
    38.8000      1266
    38.8400      1222
    38.8800      1224
    38.9200      1230
    38.9600      1212
    39.0000      1278
    39.0400      1298
    39.0800      1272
    39.1200      1304
    39.1600      1276
    39.2000      1262
    39.2400      1266
    39.2800      1208
    39.3200      1162
    39.3600      1154
    39.4000      1110
    39.4400      1150
    39.4800      1158
    39.5200      1182
    39.5600      1104
    39.6000      1144
    39.6400      1136
    39.6800      1144
    39.7200      1126
    39.7600      1156
    39.8000      1122
    39.8400      1194
    39.8800      1148
    39.9200      1202
    39.9600      1192
    40.0000      1164
    40.0400      1138
    40.0800      1210
    40.1200      1120
    40.1600      1182
    40.2000      1158
    40.2400      1172
    40.2800      1128
    40.3200      1172
    40.3600      1190
    40.4000      1198
    40.4400      1246
    40.4800      1472
    40.5200      1546
    40.5600      1778
    40.6000      2120
    40.6400      2496
    40.6800      2684
    40.7200      2838
    40.7600      2626
    40.8000      2358
    40.8400      2008
    40.8800      1730
    40.9200      1504
    40.9600      1368
    41.0000      1286
    41.0400      1276
    41.0800      1242
    41.1200      1252
    41.1600      1278
    41.2000      1264
    41.2400      1322
    41.2800      1216
    41.3200      1316
    41.3600      1260
    41.4000      1324
    41.4400      1456
    41.4800      1490
    41.5200      1604
    41.5600      1596
    41.6000      1724
    41.6400      1712
    41.6800      1816
    41.7200      2000
    41.7600      2258
    41.8000      2470
    41.8400      2388
    41.8800      2342
    41.9200      2176
    41.9600      1946
    42.0000      1796
    42.0400      1690
    42.0800      1854
    42.1200      2060
    42.1600      2624
    42.2000      3086
    42.2400      3388
    42.2800      3626
    42.3200      3516
    42.3600      2778
    42.4000      2362
    42.4400      2090
    42.4800      1656
    42.5200      1510
    42.5600      1556
    42.6000      1458
    42.6400      1408
    42.6800      1312
    42.7200      1268
    42.7600      1238
    42.8000      1216
    42.8400      1116
    42.8800      1138
    42.9200      1142
    42.9600      1110
    43.0000      1092
    43.0400      1090
    43.0800      1178
    43.1200      1198
    43.1600      1164
    43.2000      1206
    43.2400      1230
    43.2800      1196
    43.3200      1424
    43.3600      1470
    43.4000      1660
    43.4400      1798
    43.4800      1826
    43.5200      1836
    43.5600      1700
    43.6000      1640
    43.6400      1422
    43.6800      1420
    43.7200      1232
    43.7600      1164
    43.8000      1172
    43.8400      1110
    43.8800      1182
    43.9200      1064
    43.9600      1130
    44.0000      1248
    44.0400      1174
    44.0800      1210
    44.1200      1162
    44.1600      1176
    44.2000      1210
    44.2400      1140
    44.2800      1198
    44.3200      1194
    44.3600      1110
    44.4000      1144
    44.4400      1178
    44.4800      1160
    44.5200      1120
    44.5600      1162
    44.6000      1190
    44.6400      1152
    44.6800      1136
    44.7200      1302
    44.7600      1248
    44.8000      1334
    44.8400      1272
    44.8800      1232
    44.9200      1312
    44.9600      1260
    45.0000      1298
    45.0400      1140
    45.0800      1236
    45.1200      1140
    45.1600      1188
    45.2000      1272
    45.2400      1170
    45.2800      1208
    45.3200      1260
    45.3600      1258
    45.4000      1320
    45.4400      1420
    45.4800      1494
    45.5200      1514
    45.5600      1848
    45.6000      2500
    45.6400      2848
    45.6800      3200
    45.7200      3490
    45.7600      3824
    45.8000      3816
    45.8400      3610
    45.8800      3222
    45.9200      2624
    45.9600      2294
    46.0000      2008
    46.0400      1828
    46.0800      1666
    46.1200      1676
    46.1600      1760
    46.2000      1814
    46.2400      2060
    46.2800      2386
    46.3200      3022
    46.3600      4252
    46.4000      5940
    46.4400      7870
    46.4800      9732
    46.5200      9526
    46.5600      8780
    46.6000      8140
    46.6400      6544
    46.6800      4696
    46.7200      3470
    46.7600      2534
    46.8000      1876
    46.8400      1536
    46.8800      1400
    46.9200      1254
    46.9600      1306
    47.0000      1164
    47.0400      1288
    47.0800      1308
    47.1200      1344
    47.1600      1450
    47.2000      1386
    47.2400      1472
    47.2800      1470
    47.3200      1490
    47.3600      1454
    47.4000      1496
    47.4400      1470
    47.4800      1534
    47.5200      1732
    47.5600      1808
    47.6000      2044
    47.6400      2264
    47.6800      2424
    47.7200      2544
    47.7600      2432
    47.8000      2284
    47.8400      2048
    47.8800      1890
    47.9200      1644
    47.9600      1402
    48.0000      1320
    48.0400      1334
    48.0800      1256
    48.1200      1242
    48.1600      1196
    48.2000      1208
    48.2400      1252
    48.2800      1224
    48.3200      1208
    48.3600      1214
    48.4000      1256
    48.4400      1164
    48.4800      1178
    48.5200      1240
    48.5600      1124
    48.6000      1200
    48.6400      1152
    48.6800      1258
    48.7200      1362
    48.7600      1450
    48.8000      1706
    48.8400      1936
    48.8800      1888
    48.9200      1996
    48.9600      1900
    49.0000      1752
    49.0400      1638
    49.0800      1508
    49.1200      1420
    49.1600      1314
    49.2000      1278
    49.2400      1274
    49.2800      1238
    49.3200      1182
    49.3600      1216
    49.4000      1238
    49.4400      1208
    49.4800      1306
    49.5200      1398
    49.5600      1314
    49.6000      1388
    49.6400      1234
    49.6800      1236
    49.7200      1208
    49.7600      1220
    49.8000      1148
    49.8400      1120
    49.8800      1188
    49.9200      1184
    49.9600      1228
    50.0000      1238
    50.0400      1236
    50.0800      1242
    50.1200      1206
    50.1600      1266
    50.2000      1288
    50.2400      1288
    50.2800      1274
    50.3200      1296
    50.3600      1280
    50.4000      1276
    50.4400      1270
    50.4800      1346
    50.5200      1288
    50.5600      1388
    50.6000      1432
    50.6400      1400
    50.6800      1488
    50.7200      1520
    50.7600      1450
    50.8000      1398
    50.8400      1444
    50.8800      1362
    50.9200      1242
    50.9600      1226
    51.0000      1136
    51.0400      1084
    51.0800      1082
    51.1200       948
    51.1600       942
    51.2000      1034
    51.2400      1016
    51.2800       996
    51.3200      1046
    51.3600       984
    51.4000      1054
    51.4400      1030
    51.4800      1026
    51.5200      1046
    51.5600      1032
    51.6000      1092
    51.6400      1064
    51.6800      1168
    51.7200      1240
    51.7600      1230
    51.8000      1262
    51.8400      1328
    51.8800      1242
    51.9200      1234
    51.9600      1192
    52.0000      1206
    52.0400      1216
    52.0800      1242
    52.1200      1256
    52.1600      1440
    52.2000      1510
    52.2400      1614
    52.2800      1636
    52.3200      1596
    52.3600      1516
    52.4000      1492
    52.4400      1406
    52.4800      1294
    52.5200      1172
    52.5600      1168
    52.6000      1038
    52.6400      1092
    52.6800      1080
    52.7200      1074
    52.7600      1164
    52.8000      1128
    52.8400      1134
    52.8800      1122
    52.9200      1174
    52.9600      1166
    53.0000      1192
    53.0400      1210
    53.0800      1254
    53.1200      1272
    53.1600      1282
    53.2000      1176
    53.2400      1244
    53.2800      1236
    53.3200      1212
    53.3600      1236
    53.4000      1198
    53.4400      1174
    53.4800      1256
    53.5200      1234
    53.5600      1154
    53.6000      1208
    53.6400      1110
    53.6800      1112
    53.7200      1150
    53.7600      1056
    53.8000      1158
    53.8400      1126
    53.8800      1168
    53.9200      1132
    53.9600      1198
    54.0000      1258
    54.0400      1278
    54.0800      1220
    54.1200      1240
    54.1600      1310
    54.2000      1364
    54.2400      1366
    54.2800      1462
    54.3200      1430
    54.3600      1410
    54.4000      1414
    54.4400      1332
    54.4800      1286
    54.5200      1246
    54.5600      1150
    54.6000      1132
    54.6400      1216
    54.6800      1168
    54.7200      1280
    54.7600      1208
    54.8000      1284
    54.8400      1344
    54.8800      1384
    54.9200      1576
    54.9600      2166
    55.0000      3220
    55.0400      3824
    55.0800      4070
    55.1200      3626
    55.1600      3298
    55.2000      3096
    55.2400      2822
    55.2800      2114
    55.3200      1650
    55.3600      1432
    55.4000      1272
    55.4400      1276
    55.4800      1302
    55.5200      1312
    55.5600      1394
    55.6000      1330
    55.6400      1270
    55.6800      1218
    55.7200      1140
    55.7600      1144
    55.8000      1080
    55.8400      1124
    55.8800      1042
    55.9200      1100
    55.9600      1068
    56.0000      1064
    56.0400      1122
    56.0800      1072
    56.1200      1024
    56.1600      1026
    56.2000      1030
    56.2400      1056
    56.2800      1018
    56.3200      1020
    56.3600      1006
    56.4000       974
    56.4400       950
    56.4800       994
    56.5200      1046
    56.5600      1060
    56.6000      1126
    56.6400      1154
    56.6800      1170
    56.7200      1210
    56.7600      1216
    56.8000      1234
    56.8400      1262
    56.8800      1164
    56.9200      1162
    56.9600      1118
    57.0000      1056
    57.0400      1070
    57.0800      1010
    57.1200      1064
    57.1600      1008
    57.2000       976
    57.2400      1008
    57.2800       970
    57.3200       966
    57.3600       960
    57.4000      1016
    57.4400      1024
    57.4800       992
    57.5200       992
    57.5600      1014
    57.6000      1004
    57.6400      1012
    57.6800      1000
    57.7200       974
    57.7600      1056
    57.8000      1032
    57.8400      1066
    57.8800      1138
    57.9200      1144
    57.9600      1096
    58.0000      1082
    58.0400      1104
    58.0800      1142
    58.1200      1092
    58.1600      1100
    58.2000      1136
    58.2400      1192
    58.2800      1502
    58.3200      1656
    58.3600      1834
    58.4000      2246
    58.4400      2864
    58.4800      2812
    58.5200      2992
    58.5600      2762
    58.6000      2514
    58.6400      2098
    58.6800      2104
    58.7200      2092
    58.7600      2018
    58.8000      1932
    58.8400      2182
    58.8800      2492
    58.9200      2654
    58.9600      2722
    59.0000      2274
    59.0400      1944
    59.0800      1880
    59.1200      1770
    59.1600      1528
    59.2000      1238
    59.2400      1236
    59.2800      1160
    59.3200      1212
    59.3600      1078
    59.4000      1148
    59.4400      1142
    59.4800      1100
    59.5200      1182
    59.5600      1120
    59.6000      1158
    59.6400      1208
    59.6800      1248
    59.7200      1316
    59.7600      1462
    59.8000      1542
    59.8400      1652
    59.8800      1612
    59.9200      1562
    59.9600      1504
    60.0000      1398