File: powder_xrd/Tu100_27112023_clear.txt
15.0000      9024
15.0400      7706
15.0800      5894
15.1200      4674
15.1600      4248
15.2000      4168
15.2400      4152
15.2800      3966
15.3200      4084
15.3600      4240
15.4000      3896
15.4400      4044
15.4800      4000
15.5200      3894
15.5600      3950
15.6000      4034
15.6400      3900
15.6800      3872
15.7200      3968
15.7600      3998
15.8000      3952
15.8400      4002
15.8800      3974
15.9200      3984
15.9600      4064
16.0000      3976
16.0400      4038
16.0800      4348
16.1200      4280
16.1600      4460
16.2000      4772
16.2400      5078
16.2800      5658
16.3200      6362
16.3600      7384
16.4000      8798
16.4400     10682
16.4800     12602
16.5200     14230
16.5600     14352
16.6000     12914
16.6400     10886
16.6800      8256
16.7200      6082
16.7600      5056
16.8000      4980
16.8400      5334
16.8800      5808
16.9200      6254
16.9600      6464
17.0000      6638
17.0400      6234
17.0800      5656
17.1200      5192
17.1600      4742
17.2000      4666
17.2400      4898
17.2800      5674
17.3200      7568
17.3600      9506
17.4000     11052
17.4400     12052
17.4800     11364
17.5200     10102
17.5600      8538
17.6000      6944
17.6400      5174
17.6800      4228
17.7200      3860
17.7600      3654
17.8000      3646
17.8400      3704
17.8800      3646
17.9200      3612
17.9600      3556
18.0000      3624
18.0400      3600
18.0800      3610
18.1200      3582
18.1600      3590
18.2000      3598
18.2400      3580
18.2800      3630
18.3200      3626
18.3600      3528
18.4000      3584
18.4400      3440
18.4800      3604
18.5200      3498
18.5600      3480
18.6000      3496
18.6400      3504
18.6800      3490
18.7200      3538
18.7600      3522
18.8000      3574
18.8400      3564
18.8800      3546
18.9200      3488
18.9600      3414
19.0000      3558
19.0400      3348
19.0800      3464
19.1200      3388
19.1600      3532
19.2000      3558
19.2400      3506
19.2800      3500
19.3200      3530
19.3600      3548
19.4000      3432
19.4400      3490
19.4800      3572
19.5200      3436
19.5600      3502
19.6000      3556
19.6400      3434
19.6800      3518
19.7200      3440
19.7600      3542
19.8000      3552
19.8400      3652
19.8800      3972
19.9200      4048
19.9600      4388
20.0000      5134
20.0400      6494
20.0800      9828
20.1200     13358
20.1600     15668
20.2000     16440
20.2400     15062
20.2800     11978
20.3200      8712
20.3600      6270
20.4000      5222
20.4400      5014
20.4800      5426
20.5200      6268
20.5600      7382
20.6000      9074
20.6400     10004
20.6800     10172
20.7200      9752
20.7600      8778
20.8000      7978
20.8400      7446
20.8800      8514
20.9200     11042
20.9600     13906
21.0000     15804
21.0400     15618
21.0800     14220
21.1200     12408
21.1600     11536
21.2000     13382
21.2400     17820
21.2800     24094
21.3200     30880
21.3600     35986
21.4000     39694
21.4400     40694
21.4800     39988
21.5200     35960
21.5600     29468
21.6000     22748
21.6400     16446
21.6800     10800
21.7200      7032
21.7600      5078
21.8000      4436
21.8400      4378
21.8800      4300
21.9200      4160
21.9600      3862
22.0000      3722
22.0400      3606
22.0800      3656
22.1200      3602
22.1600      3622
22.2000      3700
22.2400      3750
22.2800      3880
22.3200      3740
22.3600      3994
22.4000      4286
22.4400      4602
22.4800      5046
22.5200      5556
22.5600      5808
22.6000      5864
22.6400      5796
22.6800      5366
22.7200      4548
22.7600      3778
22.8000      3520
22.8400      3562
22.8800      3500
22.9200      3464
22.9600      3580
23.0000      3542
23.0400      3490
23.0800      3408
23.1200      3536
23.1600      3644
23.2000      3672
23.2400      3592
23.2800      3748
23.3200      3968
23.3600      4342
23.4000      4908
23.4400      5720
23.4800      7246
23.5200      9922
23.5600     13504
23.6000     17756
23.6400     22514
23.6800     26124
23.7200     26760
23.7600     24180
23.8000     19626
23.8400     14058
23.8800      9046
23.9200      5730
23.9600      4414
24.0000      3910
24.0400      3636
24.0800      3654
24.1200      3408
24.1600      3442
24.2000      3448
24.2400      3468
24.2800      3332
24.3200      3302
24.3600      3442
24.4000      3382
24.4400      3494
24.4800      3534
24.5200      3642
24.5600      3896
24.6000      4356
24.6400      5194
24.6800      6442
24.7200      7846
24.7600      9178
24.8000      9768
24.8400      9464
24.8800      8546
24.9200      6996
24.9600      5796
25.0000      4540
25.0400      3970
25.0800      3612
25.1200      3348
25.1600      3256
25.2000      3232
25.2400      3202
25.2800      3214
25.3200      3186
25.3600      3238
25.4000      3212
25.4400      3152
25.4800      3252
25.5200      3388
25.5600      3450
25.6000      3618
25.6400      3940
25.6800      4284
25.7200      4448
25.7600      4496
25.8000      4426
25.8400      4160
25.8800      3886
25.9200      3862
25.9600      3890
26.0000      4274
26.0400      4640
26.0800      5452
26.1200      6288
26.1600      6990
26.2000      7494
26.2400      7514
26.2800      7316
26.3200      7082
26.3600      7256
26.4000      7514
26.4400      7882
26.4800      7942
26.5200      7664
26.5600      6460
26.6000      5338
26.6400      4316
26.6800      3550
26.7200      3262
26.7600      3086
26.8000      3108
26.8400      3134
26.8800      3098
26.9200      3140
26.9600      3082
27.0000      2974
27.0400      2988
27.0800      3012
27.1200      3028
27.1600      3058
27.2000      3050
27.2400      3002
27.2800      2920
27.3200      2978
27.3600      2996
27.4000      2910
27.4400      2882
27.4800      3046
27.5200      3084
27.5600      3048
27.6000      2908
27.6400      2984
27.6800      2876
27.7200      2824
27.7600      2938
27.8000      2964
27.8400      2948
27.8800      2930
27.9200      3096
27.9600      2986
28.0000      2936
28.0400      2930
28.0800      2956
28.1200      2920
28.1600      3050
28.2000      3052
28.2400      3124
28.2800      3176
28.3200      3388
28.3600      3790
28.4000      4148
28.4400      4896
28.4800      5434
28.5200      6098
28.5600      6458
28.6000      6934
28.6400      6860
28.6800      6640
28.7200      6010
28.7600      5148
28.8000      4480
28.8400      3864
28.8800      3326
28.9200      3224
28.9600      3184
29.0000      3244
29.0400      3146
29.0800      3244
29.1200      3280
29.1600      3590
29.2000      4218
29.2400      4862
29.2800      5950
29.3200      7672
29.3600      9574
29.4000     10984
29.4400     12718
29.4800     13838
29.5200     14870
29.5600     16672
29.6000     17954
29.6400     18022
29.6800     16950
29.7200     14390
29.7600     10766
29.8000      7566
29.8400      5212
29.8800      3922
29.9200      3430
29.9600      3302
30.0000      3094
30.0400      3112
30.0800      3106
30.1200      3152
30.1600      3246
30.2000      3206
30.2400      3384
30.2800      3554
30.3200      3682
30.3600      3802
30.4000      3768
30.4400      3924
30.4800      3826
30.5200      3570
30.5600      3368
30.6000      3532
30.6400      3530
30.6800      3752
30.7200      3800
30.7600      3960
30.8000      3884
30.8400      4078
30.8800      4164
30.9200      4376
30.9600      4404
31.0000      4306
31.0400      4192
31.0800      4006
31.1200      3844
31.1600      3952
31.2000      4140
31.2400      4592
31.2800      4968
31.3200      5170
31.3600      5036
31.4000      4692
31.4400      4226
31.4800      3732
31.5200      3388
31.5600      3192
31.6000      3166
31.6400      3208
31.6800      3432
31.7200      3760
31.7600      4336
31.8000      5368
31.8400      6766
31.8800      8166
31.9200      9412
31.9600     10016
32.0000     10478
32.0400     10014
32.0800      9476
32.1200      8428
32.1600      7860
32.2000      7218
32.2400      6514
32.2800      5506
32.3200      4536
32.3600      4024
32.4000      3508
32.4400      3298
32.4800      3212
32.5200      3068
32.5600      3198
32.6000      3260
32.6400      3318
32.6800      3416
32.7200      3194
32.7600      3348
32.8000      3150
32.8400      3018
32.8800      2970
32.9200      3184
32.9600      3482
33.0000      3808
33.0400      4124
33.0800      4682
33.1200      5250
33.1600      5450
33.2000      5384
33.2400      4972
33.2800      4358
33.3200      3844
33.3600      3240
33.4000      2976
33.4400      2958
33.4800      2836
33.5200      2972
33.5600      2828
33.6000      2786
33.6400      2888
33.6800      2862
33.7200      3040
33.7600      3058
33.8000      2974
33.8400      3048
33.8800      2982
33.9200      2808
33.9600      2844
34.0000      2930
34.0400      2938
34.0800      3002
34.1200      3238
34.1600      3284
34.2000      3388
34.2400      3450
34.2800      3470
34.3200      3254
34.3600      3108
34.4000      2906
34.4400      2820
34.4800      2870
34.5200      2860
34.5600      2772
34.6000      2788
34.6400      2772
34.6800      2762
34.7200      2794
34.7600      2834
34.8000      2806
34.8400      2764
34.8800      2690
34.9200      2880
34.9600      2866
35.0000      3020
35.0400      3168
35.0800      3300
35.1200      3962
35.1600      4446
35.2000      5336
35.2400      6034
35.2800      6602
35.3200      6752
35.3600      6230
35.4000      5626
35.4400      4776
35.4800      4124
35.5200      3588
35.5600      3168
35.6000      2908
35.6400      3078
35.6800      3180
35.7200      3386
35.7600      3870
35.8000      4426
35.8400      4674
35.8800      4850
35.9200      4868
35.9600      4600
36.0000      4306
36.0400      3816
36.0800      3314
36.1200      3012
36.1600      2928
36.2000      2896
36.2400      2790
36.2800      2810
36.3200      2860
36.3600      2782
36.4000      2736
36.4400      2760
36.4800      2768
36.5200      2800
36.5600      2942
36.6000      2976
36.6400      3200
36.6800      3442
36.7200      3934
36.7600      4754
36.8000      5950
36.8400      7384
36.8800      8954
36.9200      9914
36.9600     10090
37.0000      9752
37.0400      8440
37.0800      6944
37.1200      5662
37.1600      4652
37.2000      4056
37.2400      3562
37.2800      3482
37.3200      3702
37.3600      3956
37.4000      4408
37.4400      4878
37.4800      4898
37.5200      4682
37.5600      4228
37.6000      3918
37.6400      3430
37.6800      2966
37.7200      3020
37.7600      2932
37.8000      3006
37.8400      3034
37.8800      3070
37.9200      3222
37.9600      3216
38.0000      3132
38.0400      3064
38.0800      2858
38.1200      2962
38.1600      2958
38.2000      2706
38.2400      2656
38.2800      2724
38.3200      2748
38.3600      2606
38.4000      2788
38.4400      2806
38.4800      2656
38.5200      2696
38.5600      2726
38.6000      2738
38.6400      2784
38.6800      2696
38.7200      2628
38.7600      2686
38.8000      2744
38.8400      2658
38.8800      2766
38.9200      2736
38.9600      2870
39.0000      2944
39.0400      2924
39.0800      3066
39.1200      3088
39.1600      3188
39.2000      3140
39.2400      3194
39.2800      3162
39.3200      3042
39.3600      3036
39.4000      3006
39.4400      2806
39.4800      2708
39.5200      2732
39.5600      2740
39.6000      2680
39.6400      2622
39.6800      2704
39.7200      2634
39.7600      2698
39.8000      2752
39.8400      2698
39.8800      2832
39.9200      2682
39.9600      2746
40.0000      2776
40.0400      2714
40.0800      2840
40.1200      2674
40.1600      2862
40.2000      2652
40.2400      2884
40.2800      2838
40.3200      2776
40.3600      2784
40.4000      2782
40.4400      2774
40.4800      2914
40.5200      3096
40.5600      3252
40.6000      3562
40.6400      3986
40.6800      4570
40.7200      5256
40.7600      5764
40.8000      6096
40.8400      6276
40.8800      5946
40.9200      5390
40.9600      4794
41.0000      4236
41.0400      3690
41.0800      3256
41.1200      3160
41.1600      2974
41.2000      2926
41.2400      2940
41.2800      2924
41.3200      2974
41.3600      2924
41.4000      3054
41.4400      3012
41.4800      3290
41.5200      3552
41.5600      3930
41.6000      4102
41.6400      4468
41.6800      4768
41.7200      4826
41.7600      5418
41.8000      5782
41.8400      6190
41.8800      6436
41.9200      6238
41.9600      5864
42.0000      5460
42.0400      4782
42.0800      4720
42.1200      4684
42.1600      4942
42.2000      5326
42.2400      5460
42.2800      5522
42.3200      5062
42.3600      4796
42.4000      4350
42.4400      4130
42.4800      4126
42.5200      4356
42.5600      5188
42.6000      5754
42.6400      5506
42.6800      5274
42.7200      4868
42.7600      4184
42.8000      3760
42.8400      3350
42.8800      3064
42.9200      2918
42.9600      2862
43.0000      2832
43.0400      2748
43.0800      2754
43.1200      2788
43.1600      2744
43.2000      2762
43.2400      2962
43.2800      3016
43.3200      3164
43.3600      3712
43.4000      4196
43.4400      4762
43.4800      5492
43.5200      5858
43.5600      6090
43.6000      5944
43.6400      5534
43.6800      5174
43.7200      4416
43.7600      3836
43.8000      3452
43.8400      3112
43.8800      2940
43.9200      2916
43.9600      2892
44.0000      2878
44.0400      2950
44.0800      2966
44.1200      3076
44.1600      3154
44.2000      3204
44.2400      3402
44.2800      3214
44.3200      3246
44.3600      3102
44.4000      3010
44.4400      2802
44.4800      2790
44.5200      2762
44.5600      2706
44.6000      2782
44.6400      2992
44.6800      2882
44.7200      3026
44.7600      3190
44.8000      3302
44.8400      3368
44.8800      3438
44.9200      3274
44.9600      3240
45.0000      3170
45.0400      3096
45.0800      3050
45.1200      2978
45.1600      2974
45.2000      2914
45.2400      2844
45.2800      2934
45.3200      2952
45.3600      2880
45.4000      3124
45.4400      3214
45.4800      3468
45.5200      3820
45.5600      4394
45.6000      4678
45.6400      5020
45.6800      5034
45.7200      4438
45.7600      4256
45.8000      4138
45.8400      4138
45.8800      4278
45.9200      4618
45.9600      4604
46.0000      4754
46.0400      4522
46.0800      4246
46.1200      4298
46.1600      4214
46.2000      3988
46.2400      4070
46.2800      3784
46.3200      3768
46.3600      3646
46.4000      3704
46.4400      3548
46.4800      3648
46.5200      3638
46.5600      3584
46.6000      3546
46.6400      3564
46.6800      3386
46.7200      3494
46.7600      3322
46.8000      3358
46.8400      3218
46.8800      3072
46.9200      2942
46.9600      2960
47.0000      3010
47.0400      2844
47.0800      3008
47.1200      2936
47.1600      3216
47.2000      3452
47.2400      3758
47.2800      3954
47.3200      4396
47.3600      4396
47.4000      4674
47.4400      4548
47.4800      4494
47.5200      4440
47.5600      4464
47.6000      4412
47.6400      5126
47.6800      5520
47.7200      6120
47.7600      6676
47.8000      6990
47.8400      6640
47.8800      6416
47.9200      5862
47.9600      5094
48.0000      4544
48.0400      3946
48.0800      3710
48.1200      3470
48.1600      3344
48.2000      3350
48.2400      3260
48.2800      3342
48.3200      3570
48.3600      3290
48.4000      3410
48.4400      3392
48.4800      3386
48.5200      3330
48.5600      3198
48.6000      3086
48.6400      3102
48.6800      3086
48.7200      3068
48.7600      3188
48.8000      3218
48.8400      3506
48.8800      3786
48.9200      4096
48.9600      4414
49.0000      4742
49.0400      4914
49.0800      5028
49.1200      4984
49.1600      4712
49.2000      4538
49.2400      4164
49.2800      4006
49.3200      3734
49.3600      3678
49.4000      3526
49.4400      3536
49.4800      3610
49.5200      3602
49.5600      3728
49.6000      3690
49.6400      3508
49.6800      3436
49.7200      3164
49.7600      3178
49.8000      3128
49.8400      3162
49.8800      3088
49.9200      3254
49.9600      3442
50.0000      3588
50.0400      3686
50.0800      3540
50.1200      3612
50.1600      3686
50.2000      3756
50.2400      3814
50.2800      3884
50.3200      3894
50.3600      3930
50.4000      3910
50.4400      3880
50.4800      3816
50.5200      3872
50.5600      4050
50.6000      4120
50.6400      4302
50.6800      4454
50.7200      4754
50.7600      4912
50.8000      4918
50.8400      4960
50.8800      4780
50.9200      4528
50.9600      4368
51.0000      3930
51.0400      3644
51.0800      3434
51.1200      3244
51.1600      2936
51.2000      2864
51.2400      2776
51.2800      2696
51.3200      2760
51.3600      2730
51.4000      2636
51.4400      2724
51.4800      2764
51.5200      2688
51.5600      2892
51.6000      2800
51.6400      2896
51.6800      3042
51.7200      3182
51.7600      3278
51.8000      3356
51.8400      3362
51.8800      3588
51.9200      3550
51.9600      3574
52.0000      3422
52.0400      3514
52.0800      3378
52.1200      3264
52.1600      3370
52.2000      3464
52.2400      3542
52.2800      3810
52.3200      4042
52.3600      4192
52.4000      4186
52.4400      4210
52.4800      3992
52.5200      3826
52.5600      3518
52.6000      3352
52.6400      3080
52.6800      3026
52.7200      2998
52.7600      3110
52.8000      3152
52.8400      3232
52.8800      3478
52.9200      3532
52.9600      3660
53.0000      3716
53.0400      3890
53.0800      4050
53.1200      3934
53.1600      3898
53.2000      4168
53.2400      4278
53.2800      4730
53.3200      5494
53.3600      5860
53.4000      6366
53.4400      6550
53.4800      6314
53.5200      5902
53.5600      5598
53.6000      5124
53.6400      4530
53.6800      4096
53.7200      3926
53.7600      3532
53.8000      3272
53.8400      3258
53.8800      3062
53.9200      2938
53.9600      2976
54.0000      2858
54.0400      2996
54.0800      3192
54.1200      3194
54.1600      3274
54.2000      3496
54.2400      3744
54.2800      3964
54.3200      4250
54.3600      4348
54.4000      4276
54.4400      4246
54.4800      4056
54.5200      3766
54.5600      3658
54.6000      3450
54.6400      3392
54.6800      3274
54.7200      3226
54.7600      3326
54.8000      3374
54.8400      3308
54.8800      3240
54.9200      3202
54.9600      3046
55.0000      2924
55.0400      2844
55.0800      2738
55.1200      2760
55.1600      2684
55.2000      2666
55.2400      2692
55.2800      2666
55.3200      2666
55.3600      2778
55.4000      2710
55.4400      2862
55.4800      2984
55.5200      3228
55.5600      3060
55.6000      3232
55.6400      3440
55.6800      3296
55.7200      3412
55.7600      3266
55.8000      3164
55.8400      3108
55.8800      2994
55.9200      3064
55.9600      2942
56.0000      2896
56.0400      2876
56.0800      2928
56.1200      2932
56.1600      2874
56.2000      2822
56.2400      2774
56.2800      2712
56.3200      2684
56.3600      2746
56.4000      2640
56.4400      2866
56.4800      2834
56.5200      3008
56.5600      3114
56.6000      3404
56.6400      3576
56.6800      3540
56.7200      3792
56.7600      3836
56.8000      3934
56.8400      3860
56.8800      3608
56.9200      3658
56.9600      3556
57.0000      3380
57.0400      3170
57.0800      3008
57.1200      2938
57.1600      2676
57.2000      2728
57.2400      2720
57.2800      2702
57.3200      2618
57.3600      2586
57.4000      2560
57.4400      2746
57.4800      2632
57.5200      2804
57.5600      2740
57.6000      2804
57.6400      2776
57.6800      2748
57.7200      2740
57.7600      2752
57.8000      2744
57.8400      2782
57.8800      2764
57.9200      2834
57.9600      2882
58.0000      3022
58.0400      2928
58.0800      2892
58.1200      2804
58.1600      2928
58.2000      2698
58.2400      2712
58.2800      2692
58.3200      2744
58.3600      2620
58.4000      2548
58.4400      2586
58.4800      2590
58.5200      2558
58.5600      2496
58.6000      2652
58.6400      2544
58.6800      2610
58.7200      2516
58.7600      2628
58.8000      2648
58.8400      2662
58.8800      2666
58.9200      2640
58.9600      2730
59.0000      2796
59.0400      2964
59.0800      3038
59.1200      3206
59.1600      3246
59.2000      3314
59.2400      3336
59.2800      3316
59.3200      3330
59.3600      3444
59.4000      3288
59.4400      3422
59.4800      3266
59.5200      3486
59.5600      3344
59.6000      3304
59.6400      3356
59.6800      3296
59.7200      3366
59.7600      3350
59.8000      3496
59.8400      3400
59.8800      3388
59.9200      3476
59.9600      3442
60.0000      3458